no,pic,cla,ans,trials_prac.thisRepN,trials_prac.thisTrialN,trials_prac.thisN,trials_prac.thisIndex,trials_huan.thisRepN,trials_huan.thisTrialN,trials_huan.thisN,trials_huan.thisIndex,trials_baseline.thisRepN,trials_baseline.thisTrialN,trials_baseline.thisN,trials_baseline.thisIndex,trials_formal.thisRepN,trials_formal.thisTrialN,trials_formal.thisN,trials_formal.thisIndex,key_resp_2.keys,key_resp_2.corr,key_resp_2.rt,key_resp_huan.keys,key_resp_huan.rt,key_resp_base.keys,key_resp_base.rt,key_resp_for.keys,key_resp_for.rt,date,frameRate,expName,session,participant,
14,pic/5.png,baseline,['num_5'],,,,,,,,,0,0,0,13,,,,,num_9,0,0.501276700001,num_2,0.433762300003,num_5,1.01754109998,,,2019_May_08_1746,59.9433774802,click_exp,001,151160003,
12,pic/3.png,baseline,['num_3'],,,,,,,,,0,1,1,11,,,,,,,,,,num_3,0.652423399966,,,2019_May_08_1746,59.9433774802,click_exp,001,151160003,
20,pic/2.png,baseline,['num_2'],,,,,,,,,0,2,2,19,,,,,,,,,,num_2,0.401216199971,,,2019_May_08_1746,59.9433774802,click_exp,001,151160003,
16,pic/7.png,baseline,['num_7'],,,,,,,,,0,3,3,15,,,,,,,,,,num_7,0.467532600043,,,2019_May_08_1746,59.9433774802,click_exp,001,151160003,
10,pic/1.png,baseline,['num_1'],,,,,,,,,0,4,4,9,,,,,,,,,,num_1,0.368547699996,,,2019_May_08_1746,59.9433774802,click_exp,001,151160003,
27,pic/9.png,baseline,['num_9'],,,,,,,,,0,5,5,26,,,,,,,,,,num_9,0.484318299976,,,2019_May_08_1746,59.9433774802,click_exp,001,151160003,
25,pic/7.png,baseline,['num_7'],,,,,,,,,0,6,6,24,,,,,,,,,,num_7,0.467021599994,,,2019_May_08_1746,59.9433774802,click_exp,001,151160003,
3,pic/3.png,baseline,['num_3'],,,,,,,,,0,7,7,2,,,,,,,,,,num_3,0.384432099992,,,2019_May_08_1746,59.9433774802,click_exp,001,151160003,
21,pic/3.png,baseline,['num_3'],,,,,,,,,0,8,8,20,,,,,,,,,,num_3,0.467917100003,,,2019_May_08_1746,59.9433774802,click_exp,001,151160003,
7,pic/7.png,baseline,['num_7'],,,,,,,,,0,9,9,6,,,,,,,,,,num_7,0.401195499988,,,2019_May_08_1746,59.9433774802,click_exp,001,151160003,
11,pic/2.png,baseline,['num_2'],,,,,,,,,0,10,10,10,,,,,,,,,,num_2,0.384521300031,,,2019_May_08_1746,59.9433774802,click_exp,001,151160003,
6,pic/6.png,baseline,['num_6'],,,,,,,,,0,11,11,5,,,,,,,,,,num_6,0.401318799995,,,2019_May_08_1746,59.9433774802,click_exp,001,151160003,
22,pic/4.png,baseline,['num_4'],,,,,,,,,0,12,12,21,,,,,,,,,,num_4,0.35115609999,,,2019_May_08_1746,59.9433774802,click_exp,001,151160003,
4,pic/4.png,baseline,['num_4'],,,,,,,,,0,13,13,3,,,,,,,,,,num_4,0.384590199974,,,2019_May_08_1746,59.9433774802,click_exp,001,151160003,
23,pic/5.png,baseline,['num_5'],,,,,,,,,0,14,14,22,,,,,,,,,,num_5,0.401260999963,,,2019_May_08_1746,59.9433774802,click_exp,001,151160003,
1,pic/1.png,baseline,['num_1'],,,,,,,,,0,15,15,0,,,,,,,,,,num_1,0.334516000003,,,2019_May_08_1746,59.9433774802,click_exp,001,151160003,
26,pic/8.png,baseline,['num_8'],,,,,,,,,0,16,16,25,,,,,,,,,,num_8,0.401502299996,,,2019_May_08_1746,59.9433774802,click_exp,001,151160003,
17,pic/8.png,baseline,['num_8'],,,,,,,,,0,17,17,16,,,,,,,,,,num_8,0.401424599986,,,2019_May_08_1746,59.9433774802,click_exp,001,151160003,
8,pic/8.png,baseline,['num_8'],,,,,,,,,0,18,18,7,,,,,,,,,,num_8,0.401281900005,,,2019_May_08_1746,59.9433774802,click_exp,001,151160003,
9,pic/9.png,baseline,['num_9'],,,,,,,,,0,19,19,8,,,,,,,,,,num_9,0.417978299956,,,2019_May_08_1746,59.9433774802,click_exp,001,151160003,
19,pic/1.png,baseline,['num_1'],,,,,,,,,0,20,20,18,,,,,,,,,,num_1,0.60143390001,,,2019_May_08_1746,59.9433774802,click_exp,001,151160003,
2,pic/2.png,baseline,['num_2'],,,,,,,,,0,21,21,1,,,,,,,,,,num_2,0.434537599969,,,2019_May_08_1746,59.9433774802,click_exp,001,151160003,
5,pic/5.png,baseline,['num_5'],,,,,,,,,0,22,22,4,,,,,,,,,,num_5,0.401150699996,,,2019_May_08_1746,59.9433774802,click_exp,001,151160003,
18,pic/9.png,baseline,['num_9'],,,,,,,,,0,23,23,17,,,,,,,,,,num_9,0.467950700026,,,2019_May_08_1746,59.9433774802,click_exp,001,151160003,
13,pic/4.png,baseline,['num_4'],,,,,,,,,0,24,24,12,,,,,,,,,,num_4,0.501267799991,,,2019_May_08_1746,59.9433774802,click_exp,001,151160003,
15,pic/6.png,baseline,['num_6'],,,,,,,,,0,25,25,14,,,,,,,,,,num_6,0.367814800004,,,2019_May_08_1746,59.9433774802,click_exp,001,151160003,
24,pic/6.png,baseline,['num_6'],,,,,,,,,0,26,26,23,,,,,,,,,,num_6,0.352330600028,,,2019_May_08_1746,59.9433774802,click_exp,001,151160003,
1,pic/7.png,aa,['num_7'],,,,,,,,,,,,,0,0,0,0,,,,,,,,num_7,0.400370299991,2019_May_08_1746,59.9433774802,click_exp,001,151160003,
2,pic/7.png,aa,['num_7'],,,,,,,,,,,,,0,1,1,1,,,,,,,,num_7,0.417488000006,2019_May_08_1746,59.9433774802,click_exp,001,151160003,
3,pic/4.png,aa,['num_4'],,,,,,,,,,,,,0,2,2,2,,,,,,,,num_4,0.334528699983,2019_May_08_1746,59.9433774802,click_exp,001,151160003,
4,pic/4.png,aa,['num_4'],,,,,,,,,,,,,0,3,3,3,,,,,,,,num_4,0.351088699943,2019_May_08_1746,59.9433774802,click_exp,001,151160003,
5,pic/1.png,aa,['num_1'],,,,,,,,,,,,,0,4,4,4,,,,,,,,num_1,0.718215800007,2019_May_08_1746,59.9433774802,click_exp,001,151160003,
6,pic/1.png,aa,['num_1'],,,,,,,,,,,,,0,5,5,5,,,,,,,,num_1,0.401226699993,2019_May_08_1746,59.9433774802,click_exp,001,151160003,
7,pic/8.png,aa,['num_8'],,,,,,,,,,,,,0,6,6,6,,,,,,,,num_8,0.45045340003,2019_May_08_1746,59.9433774802,click_exp,001,151160003,
8,pic/8.png,aa,['num_8'],,,,,,,,,,,,,0,7,7,7,,,,,,,,num_8,0.418883200036,2019_May_08_1746,59.9433774802,click_exp,001,151160003,
9,pic/6.png,aa,['num_6'],,,,,,,,,,,,,0,8,8,8,,,,,,,,num_6,0.451496599999,2019_May_08_1746,59.9433774802,click_exp,001,151160003,
10,pic/6.png,aa,['num_6'],,,,,,,,,,,,,0,9,9,9,,,,,,,,num_6,0.38476419996,2019_May_08_1746,59.9433774802,click_exp,001,151160003,
-1,pic/5.png,huan,['num_5'],,,,,,,,,,,,,0,10,10,10,,,,,,,,num_5,0.41784410004,2019_May_08_1746,59.9433774802,click_exp,001,151160003,
-1,pic/9.png,huan,['num_9'],,,,,,,,,,,,,0,11,11,11,,,,,,,,num_9,0.417938900006,2019_May_08_1746,59.9433774802,click_exp,001,151160003,
11,pic/4.png,aaa,['num_4'],,,,,,,,,,,,,0,12,12,12,,,,,,,,num_4,0.384626499959,2019_May_08_1746,59.9433774802,click_exp,001,151160003,
12,pic/4.png,aaa,['num_4'],,,,,,,,,,,,,0,13,13,13,,,,,,,,num_4,0.35113970004,2019_May_08_1746,59.9433774802,click_exp,001,151160003,
13,pic/4.png,aaa,['num_4'],,,,,,,,,,,,,0,14,14,14,,,,,,,,num_4,0.367826699978,2019_May_08_1746,59.9433774802,click_exp,001,151160003,
14,pic/5.png,aaa,['num_5'],,,,,,,,,,,,,0,15,15,15,,,,,,,,num_5,0.385348199983,2019_May_08_1746,59.9433774802,click_exp,001,151160003,
15,pic/5.png,aaa,['num_5'],,,,,,,,,,,,,0,16,16,16,,,,,,,,num_5,0.401448399993,2019_May_08_1746,59.9433774802,click_exp,001,151160003,
16,pic/5.png,aaa,['num_5'],,,,,,,,,,,,,0,17,17,17,,,,,,,,num_5,0.434754499991,2019_May_08_1746,59.9433774802,click_exp,001,151160003,
17,pic/3.png,aaa,['num_3'],,,,,,,,,,,,,0,18,18,18,,,,,,,,num_3,0.40125429997,2019_May_08_1746,59.9433774802,click_exp,001,151160003,
18,pic/3.png,aaa,['num_3'],,,,,,,,,,,,,0,19,19,19,,,,,,,,num_3,0.317918699991,2019_May_08_1746,59.9433774802,click_exp,001,151160003,
19,pic/3.png,aaa,['num_3'],,,,,,,,,,,,,0,20,20,20,,,,,,,,num_3,0.284366700042,2019_May_08_1746,59.9433774802,click_exp,001,151160003,
20,pic/6.png,aaa,['num_6'],,,,,,,,,,,,,0,21,21,21,,,,,,,,num_6,0.452572599985,2019_May_08_1746,59.9433774802,click_exp,001,151160003,
21,pic/6.png,aaa,['num_6'],,,,,,,,,,,,,0,22,22,22,,,,,,,,num_6,0.268215399992,2019_May_08_1746,59.9433774802,click_exp,001,151160003,
22,pic/6.png,aaa,['num_6'],,,,,,,,,,,,,0,23,23,23,,,,,,,,num_6,0.300814800023,2019_May_08_1746,59.9433774802,click_exp,001,151160003,
-1,pic/5.png,huan,['num_5'],,,,,,,,,,,,,0,24,24,24,,,,,,,,num_5,0.48455480003,2019_May_08_1746,59.9433774802,click_exp,001,151160003,
-1,pic/9.png,huan,['num_9'],,,,,,,,,,,,,0,25,25,25,,,,,,,,num_9,0.383569600002,2019_May_08_1746,59.9433774802,click_exp,001,151160003,
23,pic/2.png,abb,['num_2'],,,,,,,,,,,,,0,26,26,26,,,,,,,,num_2,0.434645699977,2019_May_08_1746,59.9433774802,click_exp,001,151160003,
24,pic/5.png,abb,['num_5'],,,,,,,,,,,,,0,27,27,27,,,,,,,,num_5,0.451263999974,2019_May_08_1746,59.9433774802,click_exp,001,151160003,
25,pic/5.png,abb,['num_5'],,,,,,,,,,,,,0,28,28,28,,,,,,,,num_5,0.401233499986,2019_May_08_1746,59.9433774802,click_exp,001,151160003,
26,pic/6.png,abb,['num_6'],,,,,,,,,,,,,0,29,29,29,,,,,,,,num_6,0.401146800024,2019_May_08_1746,59.9433774802,click_exp,001,151160003,
27,pic/1.png,abb,['num_1'],,,,,,,,,,,,,0,30,30,30,,,,,,,,num_1,0.467700599984,2019_May_08_1746,59.9433774802,click_exp,001,151160003,
28,pic/1.png,abb,['num_1'],,,,,,,,,,,,,0,31,31,31,,,,,,,,num_1,0.367967500002,2019_May_08_1746,59.9433774802,click_exp,001,151160003,
29,pic/4.png,abb,['num_4'],,,,,,,,,,,,,0,32,32,32,,,,,,,,num_4,0.451307400013,2019_May_08_1746,59.9433774802,click_exp,001,151160003,
30,pic/1.png,abb,['num_1'],,,,,,,,,,,,,0,33,33,33,,,,,,,,num_1,0.48462090001,2019_May_08_1746,59.9433774802,click_exp,001,151160003,
31,pic/1.png,abb,['num_1'],,,,,,,,,,,,,0,34,34,34,,,,,,,,num_1,0.36886659998,2019_May_08_1746,59.9433774802,click_exp,001,151160003,
32,pic/2.png,abb,['num_2'],,,,,,,,,,,,,0,35,35,35,,,,,,,,num_2,0.367812299985,2019_May_08_1746,59.9433774802,click_exp,001,151160003,
33,pic/7.png,abb,['num_7'],,,,,,,,,,,,,0,36,36,36,,,,,,,,num_7,0.451269200013,2019_May_08_1746,59.9433774802,click_exp,001,151160003,
34,pic/7.png,abb,['num_7'],,,,,,,,,,,,,0,37,37,37,,,,,,,,num_7,0.434435000003,2019_May_08_1746,59.9433774802,click_exp,001,151160003,
35,pic/9.png,abb,['num_9'],,,,,,,,,,,,,0,38,38,38,,,,,,,,num_9,0.434443500009,2019_May_08_1746,59.9433774802,click_exp,001,151160003,
36,pic/7.png,abb,['num_7'],,,,,,,,,,,,,0,39,39,39,,,,,,,,num_7,0.401194699982,2019_May_08_1746,59.9433774802,click_exp,001,151160003,
37,pic/7.png,abb,['num_7'],,,,,,,,,,,,,0,40,40,40,,,,,,,,num_7,0.434509899991,2019_May_08_1746,59.9433774802,click_exp,001,151160003,
38,pic/7.png,abb,['num_7'],,,,,,,,,,,,,0,41,41,41,,,,,,,,num_7,0.41784249997,2019_May_08_1746,59.9433774802,click_exp,001,151160003,
39,pic/2.png,abb,['num_2'],,,,,,,,,,,,,0,42,42,42,,,,,,,,num_2,0.40128650004,2019_May_08_1746,59.9433774802,click_exp,001,151160003,
40,pic/2.png,abb,['num_2'],,,,,,,,,,,,,0,43,43,43,,,,,,,,num_2,0.317890900013,2019_May_08_1746,59.9433774802,click_exp,001,151160003,
41,pic/1.png,abb,['num_1'],,,,,,,,,,,,,0,44,44,44,,,,,,,,num_1,0.71821989998,2019_May_08_1746,59.9433774802,click_exp,001,151160003,
42,pic/2.png,abb,['num_2'],,,,,,,,,,,,,0,45,45,45,,,,,,,,num_2,0.368082400004,2019_May_08_1746,59.9433774802,click_exp,001,151160003,
43,pic/2.png,abb,['num_2'],,,,,,,,,,,,,0,46,46,46,,,,,,,,num_2,0.351070400036,2019_May_08_1746,59.9433774802,click_exp,001,151160003,
44,pic/6.png,abb,['num_6'],,,,,,,,,,,,,0,47,47,47,,,,,,,,num_6,0.500657800003,2019_May_08_1746,59.9433774802,click_exp,001,151160003,
45,pic/2.png,abb,['num_2'],,,,,,,,,,,,,0,48,48,48,,,,,,,,num_2,0.400360800035,2019_May_08_1746,59.9433774802,click_exp,001,151160003,
46,pic/2.png,abb,['num_2'],,,,,,,,,,,,,0,49,49,49,,,,,,,,num_2,0.36785119999,2019_May_08_1746,59.9433774802,click_exp,001,151160003,
-1,pic/3.png,huan,['num_3'],,,,,,,,,,,,,0,50,50,50,,,,,,,,num_3,0.417944100045,2019_May_08_1746,59.9433774802,click_exp,001,151160003,
-1,pic/5.png,huan,['num_5'],,,,,,,,,,,,,0,51,51,51,,,,,,,,num_5,0.46823519998,2019_May_08_1746,59.9433774802,click_exp,001,151160003,
47,pic/1.png,wh,['num_1'],,,,,,,,,,,,,0,52,52,52,,,,,,,,num_1,0.434523499978,2019_May_08_1746,59.9433774802,click_exp,001,151160003,
48,pic/2.png,wh,['num_2'],,,,,,,,,,,,,0,53,53,53,,,,,,,,num_2,0.384433800005,2019_May_08_1746,59.9433774802,click_exp,001,151160003,
49,pic/3.png,wh,['num_3'],,,,,,,,,,,,,0,54,54,54,,,,,,,,num_3,0.418664600002,2019_May_08_1746,59.9433774802,click_exp,001,151160003,
50,pic/1.png,wh,['num_1'],,,,,,,,,,,,,0,55,55,55,,,,,,,,num_1,0.467992600054,2019_May_08_1746,59.9433774802,click_exp,001,151160003,
51,pic/4.png,wh,['num_4'],,,,,,,,,,,,,0,56,56,56,,,,,,,,num_4,0.484488499991,2019_May_08_1746,59.9433774802,click_exp,001,151160003,
52,pic/7.png,wh,['num_7'],,,,,,,,,,,,,0,57,57,57,,,,,,,,num_7,0.41877270001,2019_May_08_1746,59.9433774802,click_exp,001,151160003,
53,pic/7.png,wh,['num_7'],,,,,,,,,,,,,0,58,58,58,,,,,,,,num_7,0.384546099987,2019_May_08_1746,59.9433774802,click_exp,001,151160003,
54,pic/8.png,wh,['num_8'],,,,,,,,,,,,,0,59,59,59,,,,,,,,num_8,0.351095400052,2019_May_08_1746,59.9433774802,click_exp,001,151160003,
55,pic/9.png,wh,['num_9'],,,,,,,,,,,,,0,60,60,60,,,,,,,,num_9,0.384518300008,2019_May_08_1746,59.9433774802,click_exp,001,151160003,
56,pic/1.png,wh,['num_1'],,,,,,,,,,,,,0,61,61,61,,,,,,,,num_1,0.467946500052,2019_May_08_1746,59.9433774802,click_exp,001,151160003,
57,pic/2.png,wh,['num_2'],,,,,,,,,,,,,0,62,62,62,,,,,,,,num_2,0.718237299996,2019_May_08_1746,59.9433774802,click_exp,001,151160003,
58,pic/3.png,wh,['num_3'],,,,,,,,,,,,,0,63,63,63,,,,,,,,num_3,0.417877500004,2019_May_08_1746,59.9433774802,click_exp,001,151160003,
59,pic/1.png,cross,['num_1'],,,,,,,,,,,,,0,64,64,64,,,,,,,,num_1,0.467370399972,2019_May_08_1746,59.9433774802,click_exp,001,151160003,
60,pic/5.png,cross,['num_5'],,,,,,,,,,,,,0,65,65,65,,,,,,,,num_5,0.417830299994,2019_May_08_1746,59.9433774802,click_exp,001,151160003,
61,pic/9.png,cross,['num_9'],,,,,,,,,,,,,0,66,66,66,,,,,,,,num_9,0.434579399996,2019_May_08_1746,59.9433774802,click_exp,001,151160003,
62,pic/7.png,cross,['num_7'],,,,,,,,,,,,,0,67,67,67,,,,,,,,num_7,0.56828940002,2019_May_08_1746,59.9433774802,click_exp,001,151160003,
63,pic/5.png,cross,['num_5'],,,,,,,,,,,,,0,68,68,68,,,,,,,,num_5,0.43450740003,2019_May_08_1746,59.9433774802,click_exp,001,151160003,
64,pic/3.png,cross,['num_3'],,,,,,,,,,,,,0,69,69,69,,,,,,,,num_3,0.351252200024,2019_May_08_1746,59.9433774802,click_exp,001,151160003,
65,pic/1.png,cross,['num_1'],,,,,,,,,,,,,0,70,70,70,,,,,,,,num_1,0.385549800005,2019_May_08_1746,59.9433774802,click_exp,001,151160003,
66,pic/5.png,cross,['num_5'],,,,,,,,,,,,,0,71,71,71,,,,,,,,num_5,0.351206700027,2019_May_08_1746,59.9433774802,click_exp,001,151160003,
67,pic/9.png,cross,['num_9'],,,,,,,,,,,,,0,72,72,72,,,,,,,,num_9,0.41801069997,2019_May_08_1746,59.9433774802,click_exp,001,151160003,
68,pic/7.png,cross,['num_7'],,,,,,,,,,,,,0,73,73,73,,,,,,,,num_7,0.368246899976,2019_May_08_1746,59.9433774802,click_exp,001,151160003,
69,pic/5.png,cross,['num_5'],,,,,,,,,,,,,0,74,74,74,,,,,,,,num_5,0.402027100034,2019_May_08_1746,59.9433774802,click_exp,001,151160003,
70,pic/3.png,cross,['num_3'],,,,,,,,,,,,,0,75,75,75,,,,,,,,num_3,0.467979000008,2019_May_08_1746,59.9433774802,click_exp,001,151160003,
-1,pic/5.png,huan,['num_5'],,,,,,,,,,,,,0,76,76,76,,,,,,,,num_5,0.317778899975,2019_May_08_1746,59.9433774802,click_exp,001,151160003,
-1,pic/7.png,huan,['num_7'],,,,,,,,,,,,,0,77,77,77,,,,,,,,num_7,0.401094699977,2019_May_08_1746,59.9433774802,click_exp,001,151160003,
71,pic/3.png,abc3,['num_3'],,,,,,,,,,,,,0,78,78,78,,,,,,,,num_3,0.434617099992,2019_May_08_1746,59.9433774802,click_exp,001,151160003,
72,pic/4.png,abc3,['num_4'],,,,,,,,,,,,,0,79,79,79,,,,,,,,num_4,0.636141900031,2019_May_08_1746,59.9433774802,click_exp,001,151160003,
73,pic/8.png,abc3,['num_8'],,,,,,,,,,,,,0,80,80,80,,,,,,,,num_8,0.434589800017,2019_May_08_1746,59.9433774802,click_exp,001,151160003,
74,pic/3.png,abc3,['num_3'],,,,,,,,,,,,,0,81,81,81,,,,,,,,num_3,0.533733899996,2019_May_08_1746,59.9433774802,click_exp,001,151160003,
75,pic/4.png,abc3,['num_4'],,,,,,,,,,,,,0,82,82,82,,,,,,,,num_4,0.351238700037,2019_May_08_1746,59.9433774802,click_exp,001,151160003,
76,pic/8.png,abc3,['num_8'],,,,,,,,,,,,,0,83,83,83,,,,,,,,num_8,0.384516799997,2019_May_08_1746,59.9433774802,click_exp,001,151160003,
77,pic/3.png,abc3,['num_3'],,,,,,,,,,,,,0,84,84,84,,,,,,,,num_3,0.651876399992,2019_May_08_1746,59.9433774802,click_exp,001,151160003,
78,pic/4.png,abc3,['num_4'],,,,,,,,,,,,,0,85,85,85,,,,,,,,num_4,0.385049099976,2019_May_08_1746,59.9433774802,click_exp,001,151160003,
79,pic/8.png,abc3,['num_8'],,,,,,,,,,,,,0,86,86,86,,,,,,,,num_8,0.434355200035,2019_May_08_1746,59.9433774802,click_exp,001,151160003,
80,pic/6.png,abc3,['num_6'],,,,,,,,,,,,,0,87,87,87,,,,,,,,num_6,0.451398600009,2019_May_08_1746,59.9433774802,click_exp,001,151160003,
81,pic/2.png,abc3,['num_2'],,,,,,,,,,,,,0,88,88,88,,,,,,,,num_2,0.451223699958,2019_May_08_1746,59.9433774802,click_exp,001,151160003,
82,pic/9.png,abc3,['num_9'],,,,,,,,,,,,,0,89,89,89,,,,,,,,num_9,0.401279999991,2019_May_08_1746,59.9433774802,click_exp,001,151160003,
83,pic/6.png,abc3,['num_6'],,,,,,,,,,,,,0,90,90,90,,,,,,,,num_6,0.418927899969,2019_May_08_1746,59.9433774802,click_exp,001,151160003,
84,pic/2.png,abc3,['num_2'],,,,,,,,,,,,,0,91,91,91,,,,,,,,num_2,0.418099900009,2019_May_08_1746,59.9433774802,click_exp,001,151160003,
85,pic/9.png,abc3,['num_9'],,,,,,,,,,,,,0,92,92,92,,,,,,,,num_9,0.434151499998,2019_May_08_1746,59.9433774802,click_exp,001,151160003,
86,pic/6.png,abc3,['num_6'],,,,,,,,,,,,,0,93,93,93,,,,,,,,num_6,0.40079569997,2019_May_08_1746,59.9433774802,click_exp,001,151160003,
87,pic/2.png,abc3,['num_2'],,,,,,,,,,,,,0,94,94,94,,,,,,,,num_2,0.434605699964,2019_May_08_1746,59.9433774802,click_exp,001,151160003,
88,pic/9.png,abc3,['num_9'],,,,,,,,,,,,,0,95,95,95,,,,,,,,num_9,0.434025699971,2019_May_08_1746,59.9433774802,click_exp,001,151160003,
89,pic/4.png,abc3,['num_4'],,,,,,,,,,,,,0,96,96,96,,,,,,,,num_4,0.41877009999,2019_May_08_1746,59.9433774802,click_exp,001,151160003,
90,pic/3.png,abc3,['num_3'],,,,,,,,,,,,,0,97,97,97,,,,,,,,num_3,0.33467219997,2019_May_08_1746,59.9433774802,click_exp,001,151160003,
91,pic/2.png,abc3,['num_2'],,,,,,,,,,,,,0,98,98,98,,,,,,,,num_2,0.433701000002,2019_May_08_1746,59.9433774802,click_exp,001,151160003,
92,pic/4.png,abc3,['num_4'],,,,,,,,,,,,,0,99,99,99,,,,,,,,num_4,0.333797300002,2019_May_08_1746,59.9433774802,click_exp,001,151160003,
93,pic/3.png,abc3,['num_3'],,,,,,,,,,,,,0,100,100,100,,,,,,,,num_3,0.801638400008,2019_May_08_1746,59.9433774802,click_exp,001,151160003,
94,pic/2.png,abc3,['num_2'],,,,,,,,,,,,,0,101,101,101,,,,,,,,num_2,0.434587099997,2019_May_08_1746,59.9433774802,click_exp,001,151160003,
95,pic/4.png,abc3,['num_4'],,,,,,,,,,,,,0,102,102,102,,,,,,,,num_4,0.401200200024,2019_May_08_1746,59.9433774802,click_exp,001,151160003,
96,pic/3.png,abc3,['num_3'],,,,,,,,,,,,,0,103,103,103,,,,,,,,num_3,0.568293200049,2019_May_08_1746,59.9433774802,click_exp,001,151160003,
97,pic/2.png,abc3,['num_2'],,,,,,,,,,,,,0,104,104,104,,,,,,,,num_2,0.367819900042,2019_May_08_1746,59.9433774802,click_exp,001,151160003,
