no,pic,cla,ans,trials_prac.thisRepN,trials_prac.thisTrialN,trials_prac.thisN,trials_prac.thisIndex,trials_huan.thisRepN,trials_huan.thisTrialN,trials_huan.thisN,trials_huan.thisIndex,trials_baseline.thisRepN,trials_baseline.thisTrialN,trials_baseline.thisN,trials_baseline.thisIndex,trials_formal.thisRepN,trials_formal.thisTrialN,trials_formal.thisN,trials_formal.thisIndex,key_resp_2.keys,key_resp_2.corr,key_resp_2.rt,key_resp_huan.keys,key_resp_huan.rt,key_resp_base.keys,key_resp_base.rt,key_resp_for.keys,key_resp_for.rt,date,frameRate,expName,session,participant,
4,pic/4.png,baseline,['num_4'],,,,,,,,,0,0,0,3,,,,,num_3,0,0.719705899988,num_2,0.652636700004,num_4,0.487207800004,,,2019_May_06_1038,60.1703543084,click_exp,001,151280002,
8,pic/8.png,baseline,['num_8'],,,,,,,,,0,1,1,7,,,,,,,,,,num_8,0.452180599998,,,2019_May_06_1038,60.1703543084,click_exp,001,151280002,
19,pic/1.png,baseline,['num_1'],,,,,,,,,0,2,2,18,,,,,,,,,,num_1,0.635986199995,,,2019_May_06_1038,60.1703543084,click_exp,001,151280002,
6,pic/6.png,baseline,['num_6'],,,,,,,,,0,3,3,5,,,,,,,,,,num_6,0.418902799996,,,2019_May_06_1038,60.1703543084,click_exp,001,151280002,
11,pic/2.png,baseline,['num_2'],,,,,,,,,0,4,4,10,,,,,,,,,,num_2,0.565802600002,,,2019_May_06_1038,60.1703543084,click_exp,001,151280002,
23,pic/5.png,baseline,['num_5'],,,,,,,,,0,5,5,22,,,,,,,,,,num_5,0.402585899996,,,2019_May_06_1038,60.1703543084,click_exp,001,151280002,
9,pic/9.png,baseline,['num_9'],,,,,,,,,0,6,6,8,,,,,,,,,,num_9,0.569976300001,,,2019_May_06_1038,60.1703543084,click_exp,001,151280002,
24,pic/6.png,baseline,['num_6'],,,,,,,,,0,7,7,23,,,,,,,,,,num_6,0.436018099994,,,2019_May_06_1038,60.1703543084,click_exp,001,151280002,
27,pic/9.png,baseline,['num_9'],,,,,,,,,0,8,8,26,,,,,,,,,,num_9,0.502475599991,,,2019_May_06_1038,60.1703543084,click_exp,001,151280002,
21,pic/3.png,baseline,['num_3'],,,,,,,,,0,9,9,20,,,,,,,,,,num_3,0.702857199998,,,2019_May_06_1038,60.1703543084,click_exp,001,151280002,
10,pic/1.png,baseline,['num_1'],,,,,,,,,0,10,10,9,,,,,,,,,,num_1,0.619866099994,,,2019_May_06_1038,60.1703543084,click_exp,001,151280002,
25,pic/7.png,baseline,['num_7'],,,,,,,,,0,11,11,24,,,,,,,,,,num_7,0.602711200001,,,2019_May_06_1038,60.1703543084,click_exp,001,151280002,
1,pic/1.png,baseline,['num_1'],,,,,,,,,0,12,12,0,,,,,,,,,,num_1,0.584961,,,2019_May_06_1038,60.1703543084,click_exp,001,151280002,
18,pic/9.png,baseline,['num_9'],,,,,,,,,0,13,13,17,,,,,,,,,,num_9,0.619999599992,,,2019_May_06_1038,60.1703543084,click_exp,001,151280002,
15,pic/6.png,baseline,['num_6'],,,,,,,,,0,14,14,14,,,,,,,,,,num_6,0.6678502,,,2019_May_06_1038,60.1703543084,click_exp,001,151280002,
2,pic/2.png,baseline,['num_2'],,,,,,,,,0,15,15,1,,,,,,,,,,num_2,0.836185299995,,,2019_May_06_1038,60.1703543084,click_exp,001,151280002,
14,pic/5.png,baseline,['num_5'],,,,,,,,,0,16,16,13,,,,,,,,,,num_5,0.5195503,,,2019_May_06_1038,60.1703543084,click_exp,001,151280002,
22,pic/4.png,baseline,['num_4'],,,,,,,,,0,17,17,21,,,,,,,,,,num_4,0.453168399996,,,2019_May_06_1038,60.1703543084,click_exp,001,151280002,
5,pic/5.png,baseline,['num_5'],,,,,,,,,0,18,18,4,,,,,,,,,,num_5,0.468901899992,,,2019_May_06_1038,60.1703543084,click_exp,001,151280002,
26,pic/8.png,baseline,['num_8'],,,,,,,,,0,19,19,25,,,,,,,,,,num_8,0.60204089999,,,2019_May_06_1038,60.1703543084,click_exp,001,151280002,
12,pic/3.png,baseline,['num_3'],,,,,,,,,0,20,20,11,,,,,,,,,,num_3,0.702439399989,,,2019_May_06_1038,60.1703543084,click_exp,001,151280002,
17,pic/8.png,baseline,['num_8'],,,,,,,,,0,21,21,16,,,,,,,,,,num_8,0.470357600003,,,2019_May_06_1038,60.1703543084,click_exp,001,151280002,
20,pic/2.png,baseline,['num_2'],,,,,,,,,0,22,22,19,,,,,,,,,,num_2,0.670550700001,,,2019_May_06_1038,60.1703543084,click_exp,001,151280002,
3,pic/3.png,baseline,['num_3'],,,,,,,,,0,23,23,2,,,,,,,,,,num_3,0.636633599992,,,2019_May_06_1038,60.1703543084,click_exp,001,151280002,
16,pic/7.png,baseline,['num_7'],,,,,,,,,0,24,24,15,,,,,,,,,,num_7,0.535508999994,,,2019_May_06_1038,60.1703543084,click_exp,001,151280002,
7,pic/7.png,baseline,['num_7'],,,,,,,,,0,25,25,6,,,,,,,,,,num_7,0.484482400003,,,2019_May_06_1038,60.1703543084,click_exp,001,151280002,
13,pic/4.png,baseline,['num_4'],,,,,,,,,0,26,26,12,,,,,,,,,,num_4,0.519168599989,,,2019_May_06_1038,60.1703543084,click_exp,001,151280002,
1,pic/1.png,aa,['num_1'],,,,,,,,,,,,,0,0,0,0,,,,,,,,num_1,0.715399600012,2019_May_06_1038,60.1703543084,click_exp,001,151280002,
2,pic/1.png,aa,['num_1'],,,,,,,,,,,,,0,1,1,1,,,,,,,,num_1,0.536176599999,2019_May_06_1038,60.1703543084,click_exp,001,151280002,
3,pic/7.png,aa,['num_7'],,,,,,,,,,,,,0,2,2,2,,,,,,,,num_7,0.486041700002,2019_May_06_1038,60.1703543084,click_exp,001,151280002,
4,pic/7.png,aa,['num_7'],,,,,,,,,,,,,0,3,3,3,,,,,,,,num_7,0.503582299993,2019_May_06_1038,60.1703543084,click_exp,001,151280002,
5,pic/2.png,aa,['num_2'],,,,,,,,,,,,,0,4,4,4,,,,,,,,num_2,0.602620799997,2019_May_06_1038,60.1703543084,click_exp,001,151280002,
6,pic/2.png,aa,['num_2'],,,,,,,,,,,,,0,5,5,5,,,,,,,,num_2,0.585975299997,2019_May_06_1038,60.1703543084,click_exp,001,151280002,
7,pic/5.png,aa,['num_5'],,,,,,,,,,,,,0,6,6,6,,,,,,,,num_5,0.436441600003,2019_May_06_1038,60.1703543084,click_exp,001,151280002,
8,pic/5.png,aa,['num_5'],,,,,,,,,,,,,0,7,7,7,,,,,,,,num_5,0.419388499999,2019_May_06_1038,60.1703543084,click_exp,001,151280002,
9,pic/4.png,aa,['num_4'],,,,,,,,,,,,,0,8,8,8,,,,,,,,num_4,0.435834399992,2019_May_06_1038,60.1703543084,click_exp,001,151280002,
10,pic/4.png,aa,['num_4'],,,,,,,,,,,,,0,9,9,9,,,,,,,,num_4,0.420573099997,2019_May_06_1038,60.1703543084,click_exp,001,151280002,
-1,pic/6.png,huan,['num_6'],,,,,,,,,,,,,0,10,10,10,,,,,,,,num_6,0.402313300001,2019_May_06_1038,60.1703543084,click_exp,001,151280002,
-1,pic/4.png,huan,['num_4'],,,,,,,,,,,,,0,11,11,11,,,,,,,,num_4,0.403108399987,2019_May_06_1038,60.1703543084,click_exp,001,151280002,
11,pic/9.png,aaa,['num_9'],,,,,,,,,,,,,0,12,12,12,,,,,,,,num_9,0.585902699997,2019_May_06_1038,60.1703543084,click_exp,001,151280002,
12,pic/9.png,aaa,['num_9'],,,,,,,,,,,,,0,13,13,13,,,,,,,,num_9,0.502836899992,2019_May_06_1038,60.1703543084,click_exp,001,151280002,
13,pic/9.png,aaa,['num_9'],,,,,,,,,,,,,0,14,14,14,,,,,,,,num_9,0.469516199999,2019_May_06_1038,60.1703543084,click_exp,001,151280002,
14,pic/8.png,aaa,['num_8'],,,,,,,,,,,,,0,15,15,15,,,,,,,,num_8,0.618698900013,2019_May_06_1038,60.1703543084,click_exp,001,151280002,
15,pic/8.png,aaa,['num_8'],,,,,,,,,,,,,0,16,16,16,,,,,,,,num_8,0.487085300003,2019_May_06_1038,60.1703543084,click_exp,001,151280002,
16,pic/8.png,aaa,['num_8'],,,,,,,,,,,,,0,17,17,17,,,,,,,,num_8,0.386616499993,2019_May_06_1038,60.1703543084,click_exp,001,151280002,
17,pic/4.png,aaa,['num_4'],,,,,,,,,,,,,0,18,18,18,,,,,,,,num_4,0.569504400002,2019_May_06_1038,60.1703543084,click_exp,001,151280002,
18,pic/4.png,aaa,['num_4'],,,,,,,,,,,,,0,19,19,19,,,,,,,,num_4,0.5199803,2019_May_06_1038,60.1703543084,click_exp,001,151280002,
19,pic/4.png,aaa,['num_4'],,,,,,,,,,,,,0,20,20,20,,,,,,,,num_4,0.370208799999,2019_May_06_1038,60.1703543084,click_exp,001,151280002,
20,pic/3.png,aaa,['num_3'],,,,,,,,,,,,,0,21,21,21,,,,,,,,num_3,0.986660900002,2019_May_06_1038,60.1703543084,click_exp,001,151280002,
21,pic/3.png,aaa,['num_3'],,,,,,,,,,,,,0,22,22,22,,,,,,,,num_3,0.618912400008,2019_May_06_1038,60.1703543084,click_exp,001,151280002,
22,pic/3.png,aaa,['num_3'],,,,,,,,,,,,,0,23,23,23,,,,,,,,num_3,0.50218689999,2019_May_06_1038,60.1703543084,click_exp,001,151280002,
-1,pic/2.png,huan,['num_2'],,,,,,,,,,,,,0,24,24,24,,,,,,,,num_2,0.652672199998,2019_May_06_1038,60.1703543084,click_exp,001,151280002,
-1,pic/9.png,huan,['num_9'],,,,,,,,,,,,,0,25,25,25,,,,,,,,num_9,0.585345,2019_May_06_1038,60.1703543084,click_exp,001,151280002,
23,pic/7.png,abb,['num_7'],,,,,,,,,,,,,0,26,26,26,,,,,,,,num_7,0.535775700002,2019_May_06_1038,60.1703543084,click_exp,001,151280002,
24,pic/1.png,abb,['num_1'],,,,,,,,,,,,,0,27,27,27,,,,,,,,num_1,0.553120099998,2019_May_06_1038,60.1703543084,click_exp,001,151280002,
25,pic/1.png,abb,['num_1'],,,,,,,,,,,,,0,28,28,28,,,,,,,,num_1,0.535759400009,2019_May_06_1038,60.1703543084,click_exp,001,151280002,
26,pic/3.png,abb,['num_3'],,,,,,,,,,,,,0,29,29,29,,,,,,,,num_3,0.585443000004,2019_May_06_1038,60.1703543084,click_exp,001,151280002,
27,pic/6.png,abb,['num_6'],,,,,,,,,,,,,0,30,30,30,,,,,,,,num_6,0.502686000007,2019_May_06_1038,60.1703543084,click_exp,001,151280002,
28,pic/6.png,abb,['num_6'],,,,,,,,,,,,,0,31,31,31,,,,,,,,num_6,0.370001699994,2019_May_06_1038,60.1703543084,click_exp,001,151280002,
29,pic/4.png,abb,['num_4'],,,,,,,,,,,,,0,32,32,32,,,,,,,,num_4,0.40261759999,2019_May_06_1038,60.1703543084,click_exp,001,151280002,
30,pic/9.png,abb,['num_9'],,,,,,,,,,,,,0,33,33,33,,,,,,,,num_9,0.536479300004,2019_May_06_1038,60.1703543084,click_exp,001,151280002,
31,pic/9.png,abb,['num_9'],,,,,,,,,,,,,0,34,34,34,,,,,,,,num_9,0.453180600001,2019_May_06_1038,60.1703543084,click_exp,001,151280002,
32,pic/2.png,abb,['num_2'],,,,,,,,,,,,,0,35,35,35,,,,,,,,num_2,0.653296699995,2019_May_06_1038,60.1703543084,click_exp,001,151280002,
33,pic/4.png,abb,['num_4'],,,,,,,,,,,,,0,36,36,36,,,,,,,,num_4,0.4027585,2019_May_06_1038,60.1703543084,click_exp,001,151280002,
34,pic/4.png,abb,['num_4'],,,,,,,,,,,,,0,37,37,37,,,,,,,,num_4,0.369555599988,2019_May_06_1038,60.1703543084,click_exp,001,151280002,
35,pic/8.png,abb,['num_8'],,,,,,,,,,,,,0,38,38,38,,,,,,,,num_8,0.504431000008,2019_May_06_1038,60.1703543084,click_exp,001,151280002,
36,pic/3.png,abb,['num_3'],,,,,,,,,,,,,0,39,39,39,,,,,,,,num_3,0.587899599996,2019_May_06_1038,60.1703543084,click_exp,001,151280002,
37,pic/3.png,abb,['num_3'],,,,,,,,,,,,,0,40,40,40,,,,,,,,num_3,0.585235999999,2019_May_06_1038,60.1703543084,click_exp,001,151280002,
38,pic/5.png,abb,['num_5'],,,,,,,,,,,,,0,41,41,41,,,,,,,,num_5,0.485783600001,2019_May_06_1038,60.1703543084,click_exp,001,151280002,
39,pic/3.png,abb,['num_3'],,,,,,,,,,,,,0,42,42,42,,,,,,,,num_3,0.51928990001,2019_May_06_1038,60.1703543084,click_exp,001,151280002,
40,pic/3.png,abb,['num_3'],,,,,,,,,,,,,0,43,43,43,,,,,,,,num_3,0.603069500008,2019_May_06_1038,60.1703543084,click_exp,001,151280002,
41,pic/8.png,abb,['num_8'],,,,,,,,,,,,,0,44,44,44,,,,,,,,num_8,0.569253599999,2019_May_06_1038,60.1703543084,click_exp,001,151280002,
42,pic/6.png,abb,['num_6'],,,,,,,,,,,,,0,45,45,45,,,,,,,,num_6,0.518485599998,2019_May_06_1038,60.1703543084,click_exp,001,151280002,
43,pic/6.png,abb,['num_6'],,,,,,,,,,,,,0,46,46,46,,,,,,,,num_6,0.452780500011,2019_May_06_1038,60.1703543084,click_exp,001,151280002,
44,pic/2.png,abb,['num_2'],,,,,,,,,,,,,0,47,47,47,,,,,,,,num_2,0.635767,2019_May_06_1038,60.1703543084,click_exp,001,151280002,
45,pic/6.png,abb,['num_6'],,,,,,,,,,,,,0,48,48,48,,,,,,,,num_6,0.452047700004,2019_May_06_1038,60.1703543084,click_exp,001,151280002,
46,pic/6.png,abb,['num_6'],,,,,,,,,,,,,0,49,49,49,,,,,,,,num_6,0.435261000006,2019_May_06_1038,60.1703543084,click_exp,001,151280002,
-1,pic/1.png,huan,['num_1'],,,,,,,,,,,,,0,50,50,50,,,,,,,,num_1,0.603710400013,2019_May_06_1038,60.1703543084,click_exp,001,151280002,
-1,pic/3.png,huan,['num_3'],,,,,,,,,,,,,0,51,51,51,,,,,,,,num_3,0.584959699991,2019_May_06_1038,60.1703543084,click_exp,001,151280002,
47,pic/2.png,wh,['num_2'],,,,,,,,,,,,,0,52,52,52,,,,,,,,num_2,0.569875800007,2019_May_06_1038,60.1703543084,click_exp,001,151280002,
48,pic/5.png,wh,['num_5'],,,,,,,,,,,,,0,53,53,53,,,,,,,,num_5,0.468773199987,2019_May_06_1038,60.1703543084,click_exp,001,151280002,
49,pic/8.png,wh,['num_8'],,,,,,,,,,,,,0,54,54,54,,,,,,,,num_8,0.435320999997,2019_May_06_1038,60.1703543084,click_exp,001,151280002,
50,pic/7.png,wh,['num_7'],,,,,,,,,,,,,0,55,55,55,,,,,,,,num_7,0.486090299994,2019_May_06_1038,60.1703543084,click_exp,001,151280002,
51,pic/8.png,wh,['num_8'],,,,,,,,,,,,,0,56,56,56,,,,,,,,num_8,0.419425999993,2019_May_06_1038,60.1703543084,click_exp,001,151280002,
52,pic/9.png,wh,['num_9'],,,,,,,,,,,,,0,57,57,57,,,,,,,,num_9,0.569075699997,2019_May_06_1038,60.1703543084,click_exp,001,151280002,
53,pic/2.png,wh,['num_2'],,,,,,,,,,,,,0,58,58,58,,,,,,,,num_2,0.669266800003,2019_May_06_1038,60.1703543084,click_exp,001,151280002,
54,pic/5.png,wh,['num_5'],,,,,,,,,,,,,0,59,59,59,,,,,,,,num_5,0.553051700001,2019_May_06_1038,60.1703543084,click_exp,001,151280002,
55,pic/8.png,wh,['num_8'],,,,,,,,,,,,,0,60,60,60,,,,,,,,num_8,0.535597500013,2019_May_06_1038,60.1703543084,click_exp,001,151280002,
56,pic/4.png,wh,['num_4'],,,,,,,,,,,,,0,61,61,61,,,,,,,,num_4,0.40218070001,2019_May_06_1038,60.1703543084,click_exp,001,151280002,
57,pic/5.png,wh,['num_5'],,,,,,,,,,,,,0,62,62,62,,,,,,,,num_5,0.552505,2019_May_06_1038,60.1703543084,click_exp,001,151280002,
58,pic/6.png,wh,['num_6'],,,,,,,,,,,,,0,63,63,63,,,,,,,,num_6,0.403028600005,2019_May_06_1038,60.1703543084,click_exp,001,151280002,
59,pic/3.png,cross,['num_3'],,,,,,,,,,,,,0,64,64,64,,,,,,,,num_3,0.685941999996,2019_May_06_1038,60.1703543084,click_exp,001,151280002,
60,pic/5.png,cross,['num_5'],,,,,,,,,,,,,0,65,65,65,,,,,,,,num_5,0.503242799998,2019_May_06_1038,60.1703543084,click_exp,001,151280002,
61,pic/7.png,cross,['num_7'],,,,,,,,,,,,,0,66,66,66,,,,,,,,num_7,0.518310300002,2019_May_06_1038,60.1703543084,click_exp,001,151280002,
62,pic/9.png,cross,['num_9'],,,,,,,,,,,,,0,67,67,67,,,,,,,,num_9,0.519511299994,2019_May_06_1038,60.1703543084,click_exp,001,151280002,
63,pic/5.png,cross,['num_5'],,,,,,,,,,,,,0,68,68,68,,,,,,,,num_5,0.485740400007,2019_May_06_1038,60.1703543084,click_exp,001,151280002,
64,pic/1.png,cross,['num_1'],,,,,,,,,,,,,0,69,69,69,,,,,,,,num_1,0.6359238,2019_May_06_1038,60.1703543084,click_exp,001,151280002,
65,pic/9.png,cross,['num_9'],,,,,,,,,,,,,0,70,70,70,,,,,,,,num_9,0.519219399997,2019_May_06_1038,60.1703543084,click_exp,001,151280002,
66,pic/5.png,cross,['num_5'],,,,,,,,,,,,,0,71,71,71,,,,,,,,num_5,0.3856313,2019_May_06_1038,60.1703543084,click_exp,001,151280002,
67,pic/1.png,cross,['num_1'],,,,,,,,,,,,,0,72,72,72,,,,,,,,num_1,0.553328599999,2019_May_06_1038,60.1703543084,click_exp,001,151280002,
68,pic/9.png,cross,['num_9'],,,,,,,,,,,,,0,73,73,73,,,,,,,,num_9,0.469414000007,2019_May_06_1038,60.1703543084,click_exp,001,151280002,
69,pic/5.png,cross,['num_5'],,,,,,,,,,,,,0,74,74,74,,,,,,,,num_5,0.402639199994,2019_May_06_1038,60.1703543084,click_exp,001,151280002,
70,pic/1.png,cross,['num_1'],,,,,,,,,,,,,0,75,75,75,,,,,,,,num_1,0.584745799992,2019_May_06_1038,60.1703543084,click_exp,001,151280002,
-1,pic/6.png,huan,['num_6'],,,,,,,,,,,,,0,76,76,76,,,,,,,,num_6,0.485764799989,2019_May_06_1038,60.1703543084,click_exp,001,151280002,
-1,pic/4.png,huan,['num_4'],,,,,,,,,,,,,0,77,77,77,,,,,,,,num_4,0.435804100009,2019_May_06_1038,60.1703543084,click_exp,001,151280002,
71,pic/7.png,abc3,['num_7'],,,,,,,,,,,,,0,78,78,78,,,,,,,,num_7,0.48616,2019_May_06_1038,60.1703543084,click_exp,001,151280002,
72,pic/1.png,abc3,['num_1'],,,,,,,,,,,,,0,79,79,79,,,,,,,,num_1,0.570882,2019_May_06_1038,60.1703543084,click_exp,001,151280002,
73,pic/6.png,abc3,['num_6'],,,,,,,,,,,,,0,80,80,80,,,,,,,,num_6,0.385804000005,2019_May_06_1038,60.1703543084,click_exp,001,151280002,
74,pic/7.png,abc3,['num_7'],,,,,,,,,,,,,0,81,81,81,,,,,,,,num_7,0.435256099998,2019_May_06_1038,60.1703543084,click_exp,001,151280002,
75,pic/1.png,abc3,['num_1'],,,,,,,,,,,,,0,82,82,82,,,,,,,,num_1,0.386054900009,2019_May_06_1038,60.1703543084,click_exp,001,151280002,
76,pic/6.png,abc3,['num_6'],,,,,,,,,,,,,0,83,83,83,,,,,,,,num_6,0.352694799993,2019_May_06_1038,60.1703543084,click_exp,001,151280002,
77,pic/7.png,abc3,['num_7'],,,,,,,,,,,,,0,84,84,84,,,,,,,,num_7,0.403036400006,2019_May_06_1038,60.1703543084,click_exp,001,151280002,
78,pic/1.png,abc3,['num_1'],,,,,,,,,,,,,0,85,85,85,,,,,,,,num_1,0.418743400005,2019_May_06_1038,60.1703543084,click_exp,001,151280002,
79,pic/6.png,abc3,['num_6'],,,,,,,,,,,,,0,86,86,86,,,,,,,,num_6,0.235718099997,2019_May_06_1038,60.1703543084,click_exp,001,151280002,
80,pic/4.png,abc3,['num_4'],,,,,,,,,,,,,0,87,87,87,,,,,,,,num_4,0.736364600001,2019_May_06_1038,60.1703543084,click_exp,001,151280002,
81,pic/1.png,abc3,['num_1'],,,,,,,,,,,,,0,88,88,88,,,,,,,,num_1,0.619373699999,2019_May_06_1038,60.1703543084,click_exp,001,151280002,
82,pic/5.png,abc3,['num_5'],,,,,,,,,,,,,0,89,89,89,,,,,,,,num_5,0.419487799998,2019_May_06_1038,60.1703543084,click_exp,001,151280002,
83,pic/4.png,abc3,['num_4'],,,,,,,,,,,,,0,90,90,90,,,,,,,,num_4,0.318555200007,2019_May_06_1038,60.1703543084,click_exp,001,151280002,
84,pic/1.png,abc3,['num_1'],,,,,,,,,,,,,0,91,91,91,,,,,,,,num_1,0.252517399989,2019_May_06_1038,60.1703543084,click_exp,001,151280002,
85,pic/5.png,abc3,['num_5'],,,,,,,,,,,,,0,92,92,92,,,,,,,,num_5,0.285644000003,2019_May_06_1038,60.1703543084,click_exp,001,151280002,
86,pic/4.png,abc3,['num_4'],,,,,,,,,,,,,0,93,93,93,,,,,,,,num_4,0.235745800004,2019_May_06_1038,60.1703543084,click_exp,001,151280002,
87,pic/1.png,abc3,['num_1'],,,,,,,,,,,,,0,94,94,94,,,,,,,,num_1,0.152350900011,2019_May_06_1038,60.1703543084,click_exp,001,151280002,
88,pic/5.png,abc3,['num_5'],,,,,,,,,,,,,0,95,95,95,,,,,,,,num_5,0.234268699991,2019_May_06_1038,60.1703543084,click_exp,001,151280002,
89,pic/8.png,abc3,['num_8'],,,,,,,,,,,,,0,96,96,96,,,,,,,,num_8,0.585895600001,2019_May_06_1038,60.1703543084,click_exp,001,151280002,
90,pic/9.png,abc3,['num_9'],,,,,,,,,,,,,0,97,97,97,,,,,,,,num_9,0.468715399998,2019_May_06_1038,60.1703543084,click_exp,001,151280002,
91,pic/3.png,abc3,['num_3'],,,,,,,,,,,,,0,98,98,98,,,,,,,,num_3,0.737689199988,2019_May_06_1038,60.1703543084,click_exp,001,151280002,
92,pic/8.png,abc3,['num_8'],,,,,,,,,,,,,0,99,99,99,,,,,,,,num_8,0.302573699999,2019_May_06_1038,60.1703543084,click_exp,001,151280002,
93,pic/9.png,abc3,['num_9'],,,,,,,,,,,,,0,100,100,100,,,,,,,,num_9,0.2356172,2019_May_06_1038,60.1703543084,click_exp,001,151280002,
94,pic/3.png,abc3,['num_3'],,,,,,,,,,,,,0,101,101,101,,,,,,,,num_3,0.268622399992,2019_May_06_1038,60.1703543084,click_exp,001,151280002,
95,pic/8.png,abc3,['num_8'],,,,,,,,,,,,,0,102,102,102,,,,,,,,num_8,0.269651099996,2019_May_06_1038,60.1703543084,click_exp,001,151280002,
96,pic/9.png,abc3,['num_9'],,,,,,,,,,,,,0,103,103,103,,,,,,,,num_9,0.0520126000047,2019_May_06_1038,60.1703543084,click_exp,001,151280002,
97,pic/3.png,abc3,['num_3'],,,,,,,,,,,,,0,104,104,104,,,,,,,,num_3,0.253097400011,2019_May_06_1038,60.1703543084,click_exp,001,151280002,
