no,pic,cla,ans,trials_prac.thisRepN,trials_prac.thisTrialN,trials_prac.thisN,trials_prac.thisIndex,trials_huan.thisRepN,trials_huan.thisTrialN,trials_huan.thisN,trials_huan.thisIndex,trials_baseline.thisRepN,trials_baseline.thisTrialN,trials_baseline.thisN,trials_baseline.thisIndex,trials_formal.thisRepN,trials_formal.thisTrialN,trials_formal.thisN,trials_formal.thisIndex,key_resp_2.keys,key_resp_2.corr,key_resp_2.rt,key_resp_huan.keys,key_resp_huan.rt,key_resp_base.keys,key_resp_base.rt,key_resp_for.keys,key_resp_for.rt,date,frameRate,expName,session,participant,
24,pic/6.png,baseline,['num_6'],,,,,,,,,0,0,0,23,,,,,num_1,0,1.13668370001,num_9,0.852824100002,num_6,0.704835199998,,,2019_May_06_0959,59.8748615397,click_exp,001,161050089,
9,pic/9.png,baseline,['num_9'],,,,,,,,,0,1,1,8,,,,,,,,,,num_9,0.603314500011,,,2019_May_06_0959,59.8748615397,click_exp,001,161050089,
15,pic/6.png,baseline,['num_6'],,,,,,,,,0,2,2,14,,,,,,,,,,num_6,0.519326299996,,,2019_May_06_0959,59.8748615397,click_exp,001,161050089,
3,pic/3.png,baseline,['num_3'],,,,,,,,,0,3,3,2,,,,,,,,,,num_3,0.869505899987,,,2019_May_06_0959,59.8748615397,click_exp,001,161050089,
2,pic/2.png,baseline,['num_2'],,,,,,,,,0,4,4,1,,,,,,,,,,num_2,0.586332399995,,,2019_May_06_0959,59.8748615397,click_exp,001,161050089,
1,pic/1.png,baseline,['num_1'],,,,,,,,,0,5,5,0,,,,,,,,,,num_1,0.518982299996,,,2019_May_06_0959,59.8748615397,click_exp,001,161050089,
25,pic/7.png,baseline,['num_7'],,,,,,,,,0,6,6,24,,,,,,,,,,num_7,1.2537661,,,2019_May_06_0959,59.8748615397,click_exp,001,161050089,
27,pic/9.png,baseline,['num_9'],,,,,,,,,0,7,7,26,,,,,,,,,,num_9,0.803182799995,,,2019_May_06_0959,59.8748615397,click_exp,001,161050089,
19,pic/1.png,baseline,['num_1'],,,,,,,,,0,8,8,18,,,,,,,,,,num_1,0.735833399987,,,2019_May_06_0959,59.8748615397,click_exp,001,161050089,
6,pic/6.png,baseline,['num_6'],,,,,,,,,0,9,9,5,,,,,,,,,,num_6,1.3537263,,,2019_May_06_0959,59.8748615397,click_exp,001,161050089,
7,pic/7.png,baseline,['num_7'],,,,,,,,,0,10,10,6,,,,,,,,,,num_7,0.68542010001,,,2019_May_06_0959,59.8748615397,click_exp,001,161050089,
14,pic/5.png,baseline,['num_5'],,,,,,,,,0,11,11,13,,,,,,,,,,num_5,0.535828699998,,,2019_May_06_0959,59.8748615397,click_exp,001,161050089,
23,pic/5.png,baseline,['num_5'],,,,,,,,,0,12,12,22,,,,,,,,,,num_5,0.435406100005,,,2019_May_06_0959,59.8748615397,click_exp,001,161050089,
5,pic/5.png,baseline,['num_5'],,,,,,,,,0,13,13,4,,,,,,,,,,num_5,0.435273800002,,,2019_May_06_0959,59.8748615397,click_exp,001,161050089,
13,pic/4.png,baseline,['num_4'],,,,,,,,,0,14,14,12,,,,,,,,,,num_4,0.687098800001,,,2019_May_06_0959,59.8748615397,click_exp,001,161050089,
16,pic/7.png,baseline,['num_7'],,,,,,,,,0,15,15,15,,,,,,,,,,num_7,0.652881899994,,,2019_May_06_0959,59.8748615397,click_exp,001,161050089,
26,pic/8.png,baseline,['num_8'],,,,,,,,,0,16,16,25,,,,,,,,,,num_8,0.870401699998,,,2019_May_06_0959,59.8748615397,click_exp,001,161050089,
11,pic/2.png,baseline,['num_2'],,,,,,,,,0,17,17,10,,,,,,,,,,num_2,0.903590400005,,,2019_May_06_0959,59.8748615397,click_exp,001,161050089,
22,pic/4.png,baseline,['num_4'],,,,,,,,,0,18,18,21,,,,,,,,,,num_4,0.7526449,,,2019_May_06_0959,59.8748615397,click_exp,001,161050089,
18,pic/9.png,baseline,['num_9'],,,,,,,,,0,19,19,17,,,,,,,,,,num_9,0.970444999999,,,2019_May_06_0959,59.8748615397,click_exp,001,161050089,
17,pic/8.png,baseline,['num_8'],,,,,,,,,0,20,20,16,,,,,,,,,,num_8,0.870135899997,,,2019_May_06_0959,59.8748615397,click_exp,001,161050089,
8,pic/8.png,baseline,['num_8'],,,,,,,,,0,21,21,7,,,,,,,,,,num_8,0.703785000005,,,2019_May_06_0959,59.8748615397,click_exp,001,161050089,
20,pic/2.png,baseline,['num_2'],,,,,,,,,0,22,22,19,,,,,,,,,,num_2,0.752677499986,,,2019_May_06_0959,59.8748615397,click_exp,001,161050089,
12,pic/3.png,baseline,['num_3'],,,,,,,,,0,23,23,11,,,,,,,,,,num_3,0.986409200006,,,2019_May_06_0959,59.8748615397,click_exp,001,161050089,
4,pic/4.png,baseline,['num_4'],,,,,,,,,0,24,24,3,,,,,,,,,,num_4,0.618457300006,,,2019_May_06_0959,59.8748615397,click_exp,001,161050089,
21,pic/3.png,baseline,['num_3'],,,,,,,,,0,25,25,20,,,,,,,,,,num_3,0.569653600003,,,2019_May_06_0959,59.8748615397,click_exp,001,161050089,
10,pic/1.png,baseline,['num_1'],,,,,,,,,0,26,26,9,,,,,,,,,,num_1,1.16995780001,,,2019_May_06_0959,59.8748615397,click_exp,001,161050089,
1,pic/3.png,aa,['num_3'],,,,,,,,,,,,,0,0,0,0,,,,,,,,num_3,0.5979792,2019_May_06_0959,59.8748615397,click_exp,001,161050089,
2,pic/3.png,aa,['num_3'],,,,,,,,,,,,,0,1,1,1,,,,,,,,num_3,0.552241500001,2019_May_06_0959,59.8748615397,click_exp,001,161050089,
3,pic/7.png,aa,['num_7'],,,,,,,,,,,,,0,2,2,2,,,,,,,,num_7,0.92031490001,2019_May_06_0959,59.8748615397,click_exp,001,161050089,
4,pic/7.png,aa,['num_7'],,,,,,,,,,,,,0,3,3,3,,,,,,,,num_7,0.518679900008,2019_May_06_0959,59.8748615397,click_exp,001,161050089,
5,pic/9.png,aa,['num_9'],,,,,,,,,,,,,0,4,4,4,,,,,,,,num_9,0.902807599996,2019_May_06_0959,59.8748615397,click_exp,001,161050089,
6,pic/9.png,aa,['num_9'],,,,,,,,,,,,,0,5,5,5,,,,,,,,num_9,0.670435599997,2019_May_06_0959,59.8748615397,click_exp,001,161050089,
7,pic/6.png,aa,['num_6'],,,,,,,,,,,,,0,6,6,6,,,,,,,,num_6,0.851766899999,2019_May_06_0959,59.8748615397,click_exp,001,161050089,
8,pic/6.png,aa,['num_6'],,,,,,,,,,,,,0,7,7,7,,,,,,,,num_6,0.469456099992,2019_May_06_0959,59.8748615397,click_exp,001,161050089,
9,pic/1.png,aa,['num_1'],,,,,,,,,,,,,0,8,8,8,,,,,,,,num_1,0.635222699988,2019_May_06_0959,59.8748615397,click_exp,001,161050089,
10,pic/1.png,aa,['num_1'],,,,,,,,,,,,,0,9,9,9,,,,,,,,num_1,0.485760700001,2019_May_06_0959,59.8748615397,click_exp,001,161050089,
-1,pic/8.png,huan,['num_8'],,,,,,,,,,,,,0,10,10,10,,,,,,,,num_8,0.787107099997,2019_May_06_0959,59.8748615397,click_exp,001,161050089,
-1,pic/4.png,huan,['num_4'],,,,,,,,,,,,,0,11,11,11,,,,,,,,num_4,1.2193829,2019_May_06_0959,59.8748615397,click_exp,001,161050089,
11,pic/9.png,aaa,['num_9'],,,,,,,,,,,,,0,12,12,12,,,,,,,,num_9,0.820293500001,2019_May_06_0959,59.8748615397,click_exp,001,161050089,
12,pic/9.png,aaa,['num_9'],,,,,,,,,,,,,0,13,13,13,,,,,,,,num_9,0.515075600008,2019_May_06_0959,59.8748615397,click_exp,001,161050089,
13,pic/9.png,aaa,['num_9'],,,,,,,,,,,,,0,14,14,14,,,,,,,,num_9,0.436958999999,2019_May_06_0959,59.8748615397,click_exp,001,161050089,
14,pic/7.png,aaa,['num_7'],,,,,,,,,,,,,0,15,15,15,,,,,,,,num_7,0.787983200004,2019_May_06_0959,59.8748615397,click_exp,001,161050089,
15,pic/7.png,aaa,['num_7'],,,,,,,,,,,,,0,16,16,16,,,,,,,,num_7,0.502629800001,2019_May_06_0959,59.8748615397,click_exp,001,161050089,
16,pic/7.png,aaa,['num_7'],,,,,,,,,,,,,0,17,17,17,,,,,,,,num_7,0.584774800009,2019_May_06_0959,59.8748615397,click_exp,001,161050089,
17,pic/2.png,aaa,['num_2'],,,,,,,,,,,,,0,18,18,18,,,,,,,,num_2,1.2696227,2019_May_06_0959,59.8748615397,click_exp,001,161050089,
18,pic/2.png,aaa,['num_2'],,,,,,,,,,,,,0,19,19,19,,,,,,,,num_2,0.570035800003,2019_May_06_0959,59.8748615397,click_exp,001,161050089,
19,pic/2.png,aaa,['num_2'],,,,,,,,,,,,,0,20,20,20,,,,,,,,num_2,0.436126899993,2019_May_06_0959,59.8748615397,click_exp,001,161050089,
20,pic/5.png,aaa,['num_5'],,,,,,,,,,,,,0,21,21,21,,,,,,,,num_5,0.819042300005,2019_May_06_0959,59.8748615397,click_exp,001,161050089,
21,pic/5.png,aaa,['num_5'],,,,,,,,,,,,,0,22,22,22,,,,,,,,num_5,0.485815500011,2019_May_06_0959,59.8748615397,click_exp,001,161050089,
22,pic/5.png,aaa,['num_5'],,,,,,,,,,,,,0,23,23,23,,,,,,,,num_5,0.368952300007,2019_May_06_0959,59.8748615397,click_exp,001,161050089,
-1,pic/8.png,huan,['num_8'],,,,,,,,,,,,,0,24,24,24,,,,,,,,num_8,0.917644300003,2019_May_06_0959,59.8748615397,click_exp,001,161050089,
-1,pic/5.png,huan,['num_5'],,,,,,,,,,,,,0,25,25,25,,,,,,,,num_5,0.98614519999,2019_May_06_0959,59.8748615397,click_exp,001,161050089,
23,pic/1.png,abb,['num_1'],,,,,,,,,,,,,0,26,26,26,,,,,,,,num_1,0.668898000004,2019_May_06_0959,59.8748615397,click_exp,001,161050089,
24,pic/6.png,abb,['num_6'],,,,,,,,,,,,,0,27,27,27,,,,,,,,num_6,0.836470399998,2019_May_06_0959,59.8748615397,click_exp,001,161050089,
25,pic/6.png,abb,['num_6'],,,,,,,,,,,,,0,28,28,28,,,,,,,,num_6,0.669398500002,2019_May_06_0959,59.8748615397,click_exp,001,161050089,
26,pic/6.png,abb,['num_6'],,,,,,,,,,,,,0,29,29,29,,,,,,,,num_6,0.519108399996,2019_May_06_0959,59.8748615397,click_exp,001,161050089,
27,pic/9.png,abb,['num_9'],,,,,,,,,,,,,0,30,30,30,,,,,,,,num_9,0.6196528,2019_May_06_0959,59.8748615397,click_exp,001,161050089,
28,pic/9.png,abb,['num_9'],,,,,,,,,,,,,0,31,31,31,,,,,,,,num_9,0.437476800013,2019_May_06_0959,59.8748615397,click_exp,001,161050089,
29,pic/2.png,abb,['num_2'],,,,,,,,,,,,,0,32,32,32,,,,,,,,num_2,0.954080800002,2019_May_06_0959,59.8748615397,click_exp,001,161050089,
30,pic/1.png,abb,['num_1'],,,,,,,,,,,,,0,33,33,33,,,,,,,,num_1,0.869254099991,2019_May_06_0959,59.8748615397,click_exp,001,161050089,
31,pic/1.png,abb,['num_1'],,,,,,,,,,,,,0,34,34,34,,,,,,,,num_1,0.719271000009,2019_May_06_0959,59.8748615397,click_exp,001,161050089,
32,pic/5.png,abb,['num_5'],,,,,,,,,,,,,0,35,35,35,,,,,,,,num_5,0.985929499991,2019_May_06_0959,59.8748615397,click_exp,001,161050089,
33,pic/3.png,abb,['num_3'],,,,,,,,,,,,,0,36,36,36,,,,,,,,num_3,1.9041062,2019_May_06_0959,59.8748615397,click_exp,001,161050089,
34,pic/3.png,abb,['num_3'],,,,,,,,,,,,,0,37,37,37,,,,,,,,num_3,0.619401200005,2019_May_06_0959,59.8748615397,click_exp,001,161050089,
35,pic/8.png,abb,['num_8'],,,,,,,,,,,,,0,38,38,38,,,,,,,,num_8,1.2862967,2019_May_06_0959,59.8748615397,click_exp,001,161050089,
36,pic/5.png,abb,['num_5'],,,,,,,,,,,,,0,39,39,39,,,,,,,,num_5,0.719243200001,2019_May_06_0959,59.8748615397,click_exp,001,161050089,
37,pic/5.png,abb,['num_5'],,,,,,,,,,,,,0,40,40,40,,,,,,,,num_5,0.535163000008,2019_May_06_0959,59.8748615397,click_exp,001,161050089,
38,pic/5.png,abb,['num_5'],,,,,,,,,,,,,0,41,41,41,,,,,,,,num_5,0.386142100004,2019_May_06_0959,59.8748615397,click_exp,001,161050089,
39,pic/4.png,abb,['num_4'],,,,,,,,,,,,,0,42,42,42,,,,,,,,num_4,0.685001199992,2019_May_06_0959,59.8748615397,click_exp,001,161050089,
40,pic/4.png,abb,['num_4'],,,,,,,,,,,,,0,43,43,43,,,,,,,,num_4,0.602842099994,2019_May_06_0959,59.8748615397,click_exp,001,161050089,
41,pic/6.png,abb,['num_6'],,,,,,,,,,,,,0,44,44,44,,,,,,,,num_6,1.00368509999,2019_May_06_0959,59.8748615397,click_exp,001,161050089,
42,pic/5.png,abb,['num_5'],,,,,,,,,,,,,0,45,45,45,,,,,,,,num_5,0.5566311,2019_May_06_0959,59.8748615397,click_exp,001,161050089,
43,pic/5.png,abb,['num_5'],,,,,,,,,,,,,0,46,46,46,,,,,,,,num_5,0.469033200003,2019_May_06_0959,59.8748615397,click_exp,001,161050089,
44,pic/9.png,abb,['num_9'],,,,,,,,,,,,,0,47,47,47,,,,,,,,num_9,0.853924900002,2019_May_06_0959,59.8748615397,click_exp,001,161050089,
45,pic/4.png,abb,['num_4'],,,,,,,,,,,,,0,48,48,48,,,,,,,,num_4,0.636441500013,2019_May_06_0959,59.8748615397,click_exp,001,161050089,
46,pic/4.png,abb,['num_4'],,,,,,,,,,,,,0,49,49,49,,,,,,,,num_4,0.503133299993,2019_May_06_0959,59.8748615397,click_exp,001,161050089,
-1,pic/1.png,huan,['num_1'],,,,,,,,,,,,,0,50,50,50,,,,,,,,num_1,1.020336,2019_May_06_0959,59.8748615397,click_exp,001,161050089,
-1,pic/8.png,huan,['num_8'],,,,,,,,,,,,,0,51,51,51,,,,,,,,num_8,0.902317900007,2019_May_06_0959,59.8748615397,click_exp,001,161050089,
47,pic/1.png,wh,['num_1'],,,,,,,,,,,,,0,52,52,52,,,,,,,,num_1,0.586173000003,2019_May_06_0959,59.8748615397,click_exp,001,161050089,
48,pic/4.png,wh,['num_4'],,,,,,,,,,,,,0,53,53,53,,,,,,,,num_4,1.1539054,2019_May_06_0959,59.8748615397,click_exp,001,161050089,
49,pic/7.png,wh,['num_7'],,,,,,,,,,,,,0,54,54,54,,,,,,,,num_7,0.785529899993,2019_May_06_0959,59.8748615397,click_exp,001,161050089,
50,pic/7.png,wh,['num_7'],,,,,,,,,,,,,0,55,55,55,,,,,,,,num_7,1.002459,2019_May_06_0959,59.8748615397,click_exp,001,161050089,
51,pic/8.png,wh,['num_8'],,,,,,,,,,,,,0,56,56,56,,,,,,,,num_8,0.536020999993,2019_May_06_0959,59.8748615397,click_exp,001,161050089,
52,pic/9.png,wh,['num_9'],,,,,,,,,,,,,0,57,57,57,,,,,,,,num_9,1.06835880001,2019_May_06_0959,59.8748615397,click_exp,001,161050089,
53,pic/1.png,wh,['num_1'],,,,,,,,,,,,,0,58,58,58,,,,,,,,num_1,1.1034603,2019_May_06_0959,59.8748615397,click_exp,001,161050089,
54,pic/2.png,wh,['num_2'],,,,,,,,,,,,,0,59,59,59,,,,,,,,num_2,1.10293180001,2019_May_06_0959,59.8748615397,click_exp,001,161050089,
55,pic/3.png,wh,['num_3'],,,,,,,,,,,,,0,60,60,60,,,,,,,,num_3,1.00383629999,2019_May_06_0959,59.8748615397,click_exp,001,161050089,
56,pic/3.png,wh,['num_3'],,,,,,,,,,,,,0,61,61,61,,,,,,,,num_3,0.553369400004,2019_May_06_0959,59.8748615397,click_exp,001,161050089,
57,pic/6.png,wh,['num_6'],,,,,,,,,,,,,0,62,62,62,,,,,,,,num_6,0.869115499998,2019_May_06_0959,59.8748615397,click_exp,001,161050089,
58,pic/9.png,wh,['num_9'],,,,,,,,,,,,,0,63,63,63,,,,,,,,num_9,0.702585299994,2019_May_06_0959,59.8748615397,click_exp,001,161050089,
59,pic/9.png,cross,['num_9'],,,,,,,,,,,,,0,64,64,64,,,,,,,,num_9,0.919164799998,2019_May_06_0959,59.8748615397,click_exp,001,161050089,
60,pic/5.png,cross,['num_5'],,,,,,,,,,,,,0,65,65,65,,,,,,,,num_5,0.935967500001,2019_May_06_0959,59.8748615397,click_exp,001,161050089,
61,pic/1.png,cross,['num_1'],,,,,,,,,,,,,0,66,66,66,,,,,,,,num_1,1.0529718,2019_May_06_0959,59.8748615397,click_exp,001,161050089,
62,pic/7.png,cross,['num_7'],,,,,,,,,,,,,0,67,67,67,,,,,,,,num_7,0.9190714,2019_May_06_0959,59.8748615397,click_exp,001,161050089,
63,pic/5.png,cross,['num_5'],,,,,,,,,,,,,0,68,68,68,,,,,,,,num_5,0.919867899996,2019_May_06_0959,59.8748615397,click_exp,001,161050089,
64,pic/3.png,cross,['num_3'],,,,,,,,,,,,,0,69,69,69,,,,,,,,num_3,1.01994950001,2019_May_06_0959,59.8748615397,click_exp,001,161050089,
65,pic/9.png,cross,['num_9'],,,,,,,,,,,,,0,70,70,70,,,,,,,,num_9,0.902818200004,2019_May_06_0959,59.8748615397,click_exp,001,161050089,
66,pic/5.png,cross,['num_5'],,,,,,,,,,,,,0,71,71,71,,,,,,,,num_5,0.736041199998,2019_May_06_0959,59.8748615397,click_exp,001,161050089,
67,pic/1.png,cross,['num_1'],,,,,,,,,,,,,0,72,72,72,,,,,,,,num_1,0.918954599998,2019_May_06_0959,59.8748615397,click_exp,001,161050089,
68,pic/9.png,cross,['num_9'],,,,,,,,,,,,,0,73,73,73,,,,,,,,num_9,0.68525699999,2019_May_06_0959,59.8748615397,click_exp,001,161050089,
69,pic/5.png,cross,['num_5'],,,,,,,,,,,,,0,74,74,74,,,,,,,,num_5,0.602609500012,2019_May_06_0959,59.8748615397,click_exp,001,161050089,
70,pic/1.png,cross,['num_1'],,,,,,,,,,,,,0,75,75,75,,,,,,,,num_1,1.0367045,2019_May_06_0959,59.8748615397,click_exp,001,161050089,
-1,pic/9.png,huan,['num_9'],,,,,,,,,,,,,0,76,76,76,,,,,,,,num_9,0.736381199997,2019_May_06_0959,59.8748615397,click_exp,001,161050089,
-1,pic/6.png,huan,['num_6'],,,,,,,,,,,,,0,77,77,77,,,,,,,,num_6,0.837224300005,2019_May_06_0959,59.8748615397,click_exp,001,161050089,
71,pic/1.png,abc3,['num_1'],,,,,,,,,,,,,0,78,78,78,,,,,,,,num_1,0.618925599993,2019_May_06_0959,59.8748615397,click_exp,001,161050089,
72,pic/2.png,abc3,['num_2'],,,,,,,,,,,,,0,79,79,79,,,,,,,,num_2,0.819397700005,2019_May_06_0959,59.8748615397,click_exp,001,161050089,
73,pic/6.png,abc3,['num_6'],,,,,,,,,,,,,0,80,80,80,,,,,,,,num_6,0.718839699999,2019_May_06_0959,59.8748615397,click_exp,001,161050089,
74,pic/1.png,abc3,['num_1'],,,,,,,,,,,,,0,81,81,81,,,,,,,,num_1,0.418888100001,2019_May_06_0959,59.8748615397,click_exp,001,161050089,
75,pic/2.png,abc3,['num_2'],,,,,,,,,,,,,0,82,82,82,,,,,,,,num_2,0.636125300007,2019_May_06_0959,59.8748615397,click_exp,001,161050089,
76,pic/6.png,abc3,['num_6'],,,,,,,,,,,,,0,83,83,83,,,,,,,,num_6,0.536526600001,2019_May_06_0959,59.8748615397,click_exp,001,161050089,
77,pic/1.png,abc3,['num_1'],,,,,,,,,,,,,0,84,84,84,,,,,,,,num_1,0.602398699994,2019_May_06_0959,59.8748615397,click_exp,001,161050089,
78,pic/2.png,abc3,['num_2'],,,,,,,,,,,,,0,85,85,85,,,,,,,,num_2,0.535550500004,2019_May_06_0959,59.8748615397,click_exp,001,161050089,
79,pic/6.png,abc3,['num_6'],,,,,,,,,,,,,0,86,86,86,,,,,,,,num_6,0.452749100004,2019_May_06_0959,59.8748615397,click_exp,001,161050089,
80,pic/4.png,abc3,['num_4'],,,,,,,,,,,,,0,87,87,87,,,,,,,,num_4,0.586349200006,2019_May_06_0959,59.8748615397,click_exp,001,161050089,
81,pic/6.png,abc3,['num_6'],,,,,,,,,,,,,0,88,88,88,,,,,,,,num_6,0.636220899993,2019_May_06_0959,59.8748615397,click_exp,001,161050089,
82,pic/5.png,abc3,['num_5'],,,,,,,,,,,,,0,89,89,89,,,,,,,,num_5,0.836665399998,2019_May_06_0959,59.8748615397,click_exp,001,161050089,
83,pic/4.png,abc3,['num_4'],,,,,,,,,,,,,0,90,90,90,,,,,,,,num_4,0.652790799999,2019_May_06_0959,59.8748615397,click_exp,001,161050089,
84,pic/6.png,abc3,['num_6'],,,,,,,,,,,,,0,91,91,91,,,,,,,,num_6,0.652953600002,2019_May_06_0959,59.8748615397,click_exp,001,161050089,
85,pic/5.png,abc3,['num_5'],,,,,,,,,,,,,0,92,92,92,,,,,,,,num_5,0.468901800006,2019_May_06_0959,59.8748615397,click_exp,001,161050089,
86,pic/4.png,abc3,['num_4'],,,,,,,,,,,,,0,93,93,93,,,,,,,,num_4,0.53591169999,2019_May_06_0959,59.8748615397,click_exp,001,161050089,
87,pic/6.png,abc3,['num_6'],,,,,,,,,,,,,0,94,94,94,,,,,,,,num_6,0.419929700001,2019_May_06_0959,59.8748615397,click_exp,001,161050089,
88,pic/5.png,abc3,['num_5'],,,,,,,,,,,,,0,95,95,95,,,,,,,,num_5,0.502546400006,2019_May_06_0959,59.8748615397,click_exp,001,161050089,
89,pic/8.png,abc3,['num_8'],,,,,,,,,,,,,0,96,96,96,,,,,,,,num_8,0.886823699999,2019_May_06_0959,59.8748615397,click_exp,001,161050089,
90,pic/3.png,abc3,['num_3'],,,,,,,,,,,,,0,97,97,97,,,,,,,,num_3,0.953723899991,2019_May_06_0959,59.8748615397,click_exp,001,161050089,
91,pic/2.png,abc3,['num_2'],,,,,,,,,,,,,0,98,98,98,,,,,,,,num_2,0.668495899998,2019_May_06_0959,59.8748615397,click_exp,001,161050089,
92,pic/8.png,abc3,['num_8'],,,,,,,,,,,,,0,99,99,99,,,,,,,,num_8,1.07008040001,2019_May_06_0959,59.8748615397,click_exp,001,161050089,
93,pic/3.png,abc3,['num_3'],,,,,,,,,,,,,0,100,100,100,,,,,,,,num_3,0.802571399996,2019_May_06_0959,59.8748615397,click_exp,001,161050089,
94,pic/2.png,abc3,['num_2'],,,,,,,,,,,,,0,101,101,101,,,,,,,,num_2,0.903168899997,2019_May_06_0959,59.8748615397,click_exp,001,161050089,
95,pic/8.png,abc3,['num_8'],,,,,,,,,,,,,0,102,102,102,,,,,,,,num_8,0.752630600007,2019_May_06_0959,59.8748615397,click_exp,001,161050089,
96,pic/3.png,abc3,['num_3'],,,,,,,,,,,,,0,103,103,103,,,,,,,,num_3,0.702106199999,2019_May_06_0959,59.8748615397,click_exp,001,161050089,
97,pic/2.png,abc3,['num_2'],,,,,,,,,,,,,0,104,104,104,,,,,,,,num_2,0.453861500006,2019_May_06_0959,59.8748615397,click_exp,001,161050089,
