no,pic,cla,ans,trials_prac.thisRepN,trials_prac.thisTrialN,trials_prac.thisN,trials_prac.thisIndex,trials_huan.thisRepN,trials_huan.thisTrialN,trials_huan.thisN,trials_huan.thisIndex,trials_baseline.thisRepN,trials_baseline.thisTrialN,trials_baseline.thisN,trials_baseline.thisIndex,trials_formal.thisRepN,trials_formal.thisTrialN,trials_formal.thisN,trials_formal.thisIndex,key_resp_2.keys,key_resp_2.corr,key_resp_2.rt,key_resp_huan.keys,key_resp_huan.rt,key_resp_base.keys,key_resp_base.rt,key_resp_for.keys,key_resp_for.rt,date,frameRate,expName,session,participant,
12,pic/3.png,baseline,['num_3'],,,,,,,,,0,0,0,11,,,,,num_3,0,0.501469200011,num_9,0.651630599983,num_3,0.501512399991,,,2019_May_08_1514,59.9526134564,click_exp,001,161158003,
2,pic/2.png,baseline,['num_2'],,,,,,,,,0,1,1,1,,,,,,,,,,num_2,0.451498599956,,,2019_May_08_1514,59.9526134564,click_exp,001,161158003,
21,pic/3.png,baseline,['num_3'],,,,,,,,,0,2,2,20,,,,,,,,,,num_3,0.45136940002,,,2019_May_08_1514,59.9526134564,click_exp,001,161158003,
17,pic/8.png,baseline,['num_8'],,,,,,,,,0,3,3,16,,,,,,,,,,num_8,0.584883500007,,,2019_May_08_1514,59.9526134564,click_exp,001,161158003,
3,pic/3.png,baseline,['num_3'],,,,,,,,,0,4,4,2,,,,,,,,,,num_3,0.55169230001,,,2019_May_08_1514,59.9526134564,click_exp,001,161158003,
16,pic/7.png,baseline,['num_7'],,,,,,,,,0,5,5,15,,,,,,,,,,num_7,0.48500559997,,,2019_May_08_1514,59.9526134564,click_exp,001,161158003,
9,pic/9.png,baseline,['num_9'],,,,,,,,,0,6,6,8,,,,,,,,,,num_9,0.6016237,,,2019_May_08_1514,59.9526134564,click_exp,001,161158003,
19,pic/1.png,baseline,['num_1'],,,,,,,,,0,7,7,18,,,,,,,,,,num_1,0.468078900012,,,2019_May_08_1514,59.9526134564,click_exp,001,161158003,
20,pic/2.png,baseline,['num_2'],,,,,,,,,0,8,8,19,,,,,,,,,,num_2,0.451248700032,,,2019_May_08_1514,59.9526134564,click_exp,001,161158003,
8,pic/8.png,baseline,['num_8'],,,,,,,,,0,9,9,7,,,,,,,,,,num_8,0.484934800013,,,2019_May_08_1514,59.9526134564,click_exp,001,161158003,
15,pic/6.png,baseline,['num_6'],,,,,,,,,0,10,10,14,,,,,,,,,,num_6,0.551556499966,,,2019_May_08_1514,59.9526134564,click_exp,001,161158003,
24,pic/6.png,baseline,['num_6'],,,,,,,,,0,11,11,23,,,,,,,,,,num_6,0.451386499975,,,2019_May_08_1514,59.9526134564,click_exp,001,161158003,
25,pic/7.png,baseline,['num_7'],,,,,,,,,0,12,12,24,,,,,,,,,,num_7,0.485192399996,,,2019_May_08_1514,59.9526134564,click_exp,001,161158003,
1,pic/1.png,baseline,['num_1'],,,,,,,,,0,13,13,0,,,,,,,,,,num_1,0.568717900023,,,2019_May_08_1514,59.9526134564,click_exp,001,161158003,
7,pic/7.png,baseline,['num_7'],,,,,,,,,0,14,14,6,,,,,,,,,,num_7,0.567779200035,,,2019_May_08_1514,59.9526134564,click_exp,001,161158003,
11,pic/2.png,baseline,['num_2'],,,,,,,,,0,15,15,10,,,,,,,,,,num_2,0.467661599978,,,2019_May_08_1514,59.9526134564,click_exp,001,161158003,
10,pic/1.png,baseline,['num_1'],,,,,,,,,0,16,16,9,,,,,,,,,,num_1,0.46819699998,,,2019_May_08_1514,59.9526134564,click_exp,001,161158003,
4,pic/4.png,baseline,['num_4'],,,,,,,,,0,17,17,3,,,,,,,,,,num_4,0.568199599977,,,2019_May_08_1514,59.9526134564,click_exp,001,161158003,
6,pic/6.png,baseline,['num_6'],,,,,,,,,0,18,18,5,,,,,,,,,,num_6,0.502053500037,,,2019_May_08_1514,59.9526134564,click_exp,001,161158003,
13,pic/4.png,baseline,['num_4'],,,,,,,,,0,19,19,12,,,,,,,,,,num_4,0.418130000005,,,2019_May_08_1514,59.9526134564,click_exp,001,161158003,
14,pic/5.png,baseline,['num_5'],,,,,,,,,0,20,20,13,,,,,,,,,,num_5,0.484713100013,,,2019_May_08_1514,59.9526134564,click_exp,001,161158003,
26,pic/8.png,baseline,['num_8'],,,,,,,,,0,21,21,25,,,,,,,,,,num_8,0.635061400011,,,2019_May_08_1514,59.9526134564,click_exp,001,161158003,
5,pic/5.png,baseline,['num_5'],,,,,,,,,0,22,22,4,,,,,,,,,,num_5,0.48543890001,,,2019_May_08_1514,59.9526134564,click_exp,001,161158003,
18,pic/9.png,baseline,['num_9'],,,,,,,,,0,23,23,17,,,,,,,,,,num_9,0.568520600034,,,2019_May_08_1514,59.9526134564,click_exp,001,161158003,
22,pic/4.png,baseline,['num_4'],,,,,,,,,0,24,24,21,,,,,,,,,,num_4,0.434910100012,,,2019_May_08_1514,59.9526134564,click_exp,001,161158003,
27,pic/9.png,baseline,['num_9'],,,,,,,,,0,25,25,26,,,,,,,,,,num_9,0.568080600002,,,2019_May_08_1514,59.9526134564,click_exp,001,161158003,
23,pic/5.png,baseline,['num_5'],,,,,,,,,0,26,26,22,,,,,,,,,,num_5,0.451514500019,,,2019_May_08_1514,59.9526134564,click_exp,001,161158003,
1,pic/5.png,aa,['num_5'],,,,,,,,,,,,,0,0,0,0,,,,,,,,num_5,0.400800799951,2019_May_08_1514,59.9526134564,click_exp,001,161158003,
2,pic/5.png,aa,['num_5'],,,,,,,,,,,,,0,1,1,1,,,,,,,,num_5,0.401269500027,2019_May_08_1514,59.9526134564,click_exp,001,161158003,
3,pic/2.png,aa,['num_2'],,,,,,,,,,,,,0,2,2,2,,,,,,,,num_2,0.584951199999,2019_May_08_1514,59.9526134564,click_exp,001,161158003,
4,pic/2.png,aa,['num_2'],,,,,,,,,,,,,0,3,3,3,,,,,,,,num_2,0.434657300008,2019_May_08_1514,59.9526134564,click_exp,001,161158003,
5,pic/6.png,aa,['num_6'],,,,,,,,,,,,,0,4,4,4,,,,,,,,num_6,0.568195400003,2019_May_08_1514,59.9526134564,click_exp,001,161158003,
6,pic/6.png,aa,['num_6'],,,,,,,,,,,,,0,5,5,5,,,,,,,,num_6,0.418318600045,2019_May_08_1514,59.9526134564,click_exp,001,161158003,
7,pic/3.png,aa,['num_3'],,,,,,,,,,,,,0,6,6,6,,,,,,,,num_3,0.818425000005,2019_May_08_1514,59.9526134564,click_exp,001,161158003,
8,pic/3.png,aa,['num_3'],,,,,,,,,,,,,0,7,7,7,,,,,,,,num_3,0.518211900024,2019_May_08_1514,59.9526134564,click_exp,001,161158003,
9,pic/7.png,aa,['num_7'],,,,,,,,,,,,,0,8,8,8,,,,,,,,num_7,0.551304900029,2019_May_08_1514,59.9526134564,click_exp,001,161158003,
10,pic/7.png,aa,['num_7'],,,,,,,,,,,,,0,9,9,9,,,,,,,,num_7,0.534675500006,2019_May_08_1514,59.9526134564,click_exp,001,161158003,
-1,pic/8.png,huan,['num_8'],,,,,,,,,,,,,0,10,10,10,,,,,,,,num_8,0.634895800031,2019_May_08_1514,59.9526134564,click_exp,001,161158003,
-1,pic/5.png,huan,['num_5'],,,,,,,,,,,,,0,11,11,11,,,,,,,,num_5,0.501506100001,2019_May_08_1514,59.9526134564,click_exp,001,161158003,
11,pic/2.png,aaa,['num_2'],,,,,,,,,,,,,0,12,12,12,,,,,,,,num_2,0.518109600001,2019_May_08_1514,59.9526134564,click_exp,001,161158003,
12,pic/2.png,aaa,['num_2'],,,,,,,,,,,,,0,13,13,13,,,,,,,,num_2,0.601741800027,2019_May_08_1514,59.9526134564,click_exp,001,161158003,
13,pic/2.png,aaa,['num_2'],,,,,,,,,,,,,0,14,14,14,,,,,,,,num_2,0.401389800012,2019_May_08_1514,59.9526134564,click_exp,001,161158003,
14,pic/1.png,aaa,['num_1'],,,,,,,,,,,,,0,15,15,15,,,,,,,,num_1,0.484984300041,2019_May_08_1514,59.9526134564,click_exp,001,161158003,
15,pic/1.png,aaa,['num_1'],,,,,,,,,,,,,0,16,16,16,,,,,,,,num_1,0.401485999988,2019_May_08_1514,59.9526134564,click_exp,001,161158003,
16,pic/1.png,aaa,['num_1'],,,,,,,,,,,,,0,17,17,17,,,,,,,,num_1,0.41805810004,2019_May_08_1514,59.9526134564,click_exp,001,161158003,
17,pic/9.png,aaa,['num_9'],,,,,,,,,,,,,0,18,18,18,,,,,,,,num_9,0.668303699989,2019_May_08_1514,59.9526134564,click_exp,001,161158003,
18,pic/9.png,aaa,['num_9'],,,,,,,,,,,,,0,19,19,19,,,,,,,,num_9,0.451414100011,2019_May_08_1514,59.9526134564,click_exp,001,161158003,
19,pic/9.png,aaa,['num_9'],,,,,,,,,,,,,0,20,20,20,,,,,,,,num_9,0.368028800003,2019_May_08_1514,59.9526134564,click_exp,001,161158003,
20,pic/7.png,aaa,['num_7'],,,,,,,,,,,,,0,21,21,21,,,,,,,,num_7,0.584958099993,2019_May_08_1514,59.9526134564,click_exp,001,161158003,
21,pic/7.png,aaa,['num_7'],,,,,,,,,,,,,0,22,22,22,,,,,,,,num_7,0.384555900004,2019_May_08_1514,59.9526134564,click_exp,001,161158003,
22,pic/7.png,aaa,['num_7'],,,,,,,,,,,,,0,23,23,23,,,,,,,,num_7,0.385975299985,2019_May_08_1514,59.9526134564,click_exp,001,161158003,
-1,pic/9.png,huan,['num_9'],,,,,,,,,,,,,0,24,24,24,,,,,,,,num_9,0.434551500017,2019_May_08_1514,59.9526134564,click_exp,001,161158003,
-1,pic/4.png,huan,['num_4'],,,,,,,,,,,,,0,25,25,25,,,,,,,,num_4,0.585192199971,2019_May_08_1514,59.9526134564,click_exp,001,161158003,
23,pic/4.png,abb,['num_4'],,,,,,,,,,,,,0,26,26,26,,,,,,,,num_4,0.384610499954,2019_May_08_1514,59.9526134564,click_exp,001,161158003,
24,pic/5.png,abb,['num_5'],,,,,,,,,,,,,0,27,27,27,,,,,,,,num_5,0.468040900014,2019_May_08_1514,59.9526134564,click_exp,001,161158003,
25,pic/5.png,abb,['num_5'],,,,,,,,,,,,,0,28,28,28,,,,,,,,num_5,0.334880800045,2019_May_08_1514,59.9526134564,click_exp,001,161158003,
26,pic/9.png,abb,['num_9'],,,,,,,,,,,,,0,29,29,29,,,,,,,,num_9,0.668163999973,2019_May_08_1514,59.9526134564,click_exp,001,161158003,
27,pic/1.png,abb,['num_1'],,,,,,,,,,,,,0,30,30,30,,,,,,,,num_1,0.534815499966,2019_May_08_1514,59.9526134564,click_exp,001,161158003,
28,pic/1.png,abb,['num_1'],,,,,,,,,,,,,0,31,31,31,,,,,,,,num_1,0.436365599977,2019_May_08_1514,59.9526134564,click_exp,001,161158003,
29,pic/8.png,abb,['num_8'],,,,,,,,,,,,,0,32,32,32,,,,,,,,num_8,0.752199699986,2019_May_08_1514,59.9526134564,click_exp,001,161158003,
30,pic/6.png,abb,['num_6'],,,,,,,,,,,,,0,33,33,33,,,,,,,,num_6,0.70189289999,2019_May_08_1514,59.9526134564,click_exp,001,161158003,
31,pic/6.png,abb,['num_6'],,,,,,,,,,,,,0,34,34,34,,,,,,,,num_6,0.434792799992,2019_May_08_1514,59.9526134564,click_exp,001,161158003,
32,pic/6.png,abb,['num_6'],,,,,,,,,,,,,0,35,35,35,,,,,,,,num_6,0.351433400006,2019_May_08_1514,59.9526134564,click_exp,001,161158003,
33,pic/3.png,abb,['num_3'],,,,,,,,,,,,,0,36,36,36,,,,,,,,num_3,0.784995800001,2019_May_08_1514,59.9526134564,click_exp,001,161158003,
34,pic/3.png,abb,['num_3'],,,,,,,,,,,,,0,37,37,37,,,,,,,,num_3,0.451549999998,2019_May_08_1514,59.9526134564,click_exp,001,161158003,
35,pic/4.png,abb,['num_4'],,,,,,,,,,,,,0,38,38,38,,,,,,,,num_4,0.551589399984,2019_May_08_1514,59.9526134564,click_exp,001,161158003,
36,pic/3.png,abb,['num_3'],,,,,,,,,,,,,0,39,39,39,,,,,,,,num_3,0.668771900004,2019_May_08_1514,59.9526134564,click_exp,001,161158003,
37,pic/3.png,abb,['num_3'],,,,,,,,,,,,,0,40,40,40,,,,,,,,num_3,0.401695000008,2019_May_08_1514,59.9526134564,click_exp,001,161158003,
38,pic/6.png,abb,['num_6'],,,,,,,,,,,,,0,41,41,41,,,,,,,,num_6,0.584963300033,2019_May_08_1514,59.9526134564,click_exp,001,161158003,
39,pic/9.png,abb,['num_9'],,,,,,,,,,,,,0,42,42,42,,,,,,,,num_9,0.601678000006,2019_May_08_1514,59.9526134564,click_exp,001,161158003,
40,pic/9.png,abb,['num_9'],,,,,,,,,,,,,0,43,43,43,,,,,,,,num_9,0.351610399957,2019_May_08_1514,59.9526134564,click_exp,001,161158003,
41,pic/7.png,abb,['num_7'],,,,,,,,,,,,,0,44,44,44,,,,,,,,num_7,0.65156540001,2019_May_08_1514,59.9526134564,click_exp,001,161158003,
42,pic/6.png,abb,['num_6'],,,,,,,,,,,,,0,45,45,45,,,,,,,,num_6,0.56825859996,2019_May_08_1514,59.9526134564,click_exp,001,161158003,
43,pic/6.png,abb,['num_6'],,,,,,,,,,,,,0,46,46,46,,,,,,,,num_6,0.518228700035,2019_May_08_1514,59.9526134564,click_exp,001,161158003,
44,pic/1.png,abb,['num_1'],,,,,,,,,,,,,0,47,47,47,,,,,,,,num_1,0.801752700005,2019_May_08_1514,59.9526134564,click_exp,001,161158003,
45,pic/2.png,abb,['num_2'],,,,,,,,,,,,,0,48,48,48,,,,,,,,num_2,0.651631999994,2019_May_08_1514,59.9526134564,click_exp,001,161158003,
46,pic/2.png,abb,['num_2'],,,,,,,,,,,,,0,49,49,49,,,,,,,,num_2,0.402093500015,2019_May_08_1514,59.9526134564,click_exp,001,161158003,
-1,pic/9.png,huan,['num_9'],,,,,,,,,,,,,0,50,50,50,,,,,,,,num_9,0.735372999974,2019_May_08_1514,59.9526134564,click_exp,001,161158003,
-1,pic/2.png,huan,['num_2'],,,,,,,,,,,,,0,51,51,51,,,,,,,,num_2,0.618511400011,2019_May_08_1514,59.9526134564,click_exp,001,161158003,
47,pic/1.png,wh,['num_1'],,,,,,,,,,,,,0,52,52,52,,,,,,,,num_1,0.484777699981,2019_May_08_1514,59.9526134564,click_exp,001,161158003,
48,pic/4.png,wh,['num_4'],,,,,,,,,,,,,0,53,53,53,,,,,,,,num_4,0.584272100008,2019_May_08_1514,59.9526134564,click_exp,001,161158003,
49,pic/7.png,wh,['num_7'],,,,,,,,,,,,,0,54,54,54,,,,,,,,num_7,0.568448400008,2019_May_08_1514,59.9526134564,click_exp,001,161158003,
50,pic/1.png,wh,['num_1'],,,,,,,,,,,,,0,55,55,55,,,,,,,,num_1,1.15207070002,2019_May_08_1514,59.9526134564,click_exp,001,161158003,
51,pic/4.png,wh,['num_4'],,,,,,,,,,,,,0,56,56,56,,,,,,,,num_4,0.484736500017,2019_May_08_1514,59.9526134564,click_exp,001,161158003,
52,pic/7.png,wh,['num_7'],,,,,,,,,,,,,0,57,57,57,,,,,,,,num_7,0.551525900024,2019_May_08_1514,59.9526134564,click_exp,001,161158003,
53,pic/3.png,wh,['num_3'],,,,,,,,,,,,,0,58,58,58,,,,,,,,num_3,0.735026600014,2019_May_08_1514,59.9526134564,click_exp,001,161158003,
54,pic/6.png,wh,['num_6'],,,,,,,,,,,,,0,59,59,59,,,,,,,,num_6,0.501832500042,2019_May_08_1514,59.9526134564,click_exp,001,161158003,
55,pic/9.png,wh,['num_9'],,,,,,,,,,,,,0,60,60,60,,,,,,,,num_9,0.568370699999,2019_May_08_1514,59.9526134564,click_exp,001,161158003,
56,pic/4.png,wh,['num_4'],,,,,,,,,,,,,0,61,61,61,,,,,,,,num_4,0.635398500017,2019_May_08_1514,59.9526134564,click_exp,001,161158003,
57,pic/5.png,wh,['num_5'],,,,,,,,,,,,,0,62,62,62,,,,,,,,num_5,0.46836150001,2019_May_08_1514,59.9526134564,click_exp,001,161158003,
58,pic/6.png,wh,['num_6'],,,,,,,,,,,,,0,63,63,63,,,,,,,,num_6,0.501646900026,2019_May_08_1514,59.9526134564,click_exp,001,161158003,
59,pic/3.png,cross,['num_3'],,,,,,,,,,,,,0,64,64,64,,,,,,,,num_3,0.701899099979,2019_May_08_1514,59.9526134564,click_exp,001,161158003,
60,pic/5.png,cross,['num_5'],,,,,,,,,,,,,0,65,65,65,,,,,,,,num_5,0.61841950001,2019_May_08_1514,59.9526134564,click_exp,001,161158003,
61,pic/7.png,cross,['num_7'],,,,,,,,,,,,,0,66,66,66,,,,,,,,num_7,0.534853399964,2019_May_08_1514,59.9526134564,click_exp,001,161158003,
62,pic/9.png,cross,['num_9'],,,,,,,,,,,,,0,67,67,67,,,,,,,,num_9,0.568151399959,2019_May_08_1514,59.9526134564,click_exp,001,161158003,
63,pic/5.png,cross,['num_5'],,,,,,,,,,,,,0,68,68,68,,,,,,,,num_5,0.534752500011,2019_May_08_1514,59.9526134564,click_exp,001,161158003,
64,pic/1.png,cross,['num_1'],,,,,,,,,,,,,0,69,69,69,,,,,,,,num_1,0.51815269998,2019_May_08_1514,59.9526134564,click_exp,001,161158003,
65,pic/3.png,cross,['num_3'],,,,,,,,,,,,,0,70,70,70,,,,,,,,num_3,0.7516053,2019_May_08_1514,59.9526134564,click_exp,001,161158003,
66,pic/5.png,cross,['num_5'],,,,,,,,,,,,,0,71,71,71,,,,,,,,num_5,0.435226300033,2019_May_08_1514,59.9526134564,click_exp,001,161158003,
67,pic/7.png,cross,['num_7'],,,,,,,,,,,,,0,72,72,72,,,,,,,,num_7,0.501913300017,2019_May_08_1514,59.9526134564,click_exp,001,161158003,
68,pic/7.png,cross,['num_7'],,,,,,,,,,,,,0,73,73,73,,,,,,,,num_7,0.484850799956,2019_May_08_1514,59.9526134564,click_exp,001,161158003,
69,pic/5.png,cross,['num_5'],,,,,,,,,,,,,0,74,74,74,,,,,,,,num_5,0.468521400006,2019_May_08_1514,59.9526134564,click_exp,001,161158003,
70,pic/3.png,cross,['num_3'],,,,,,,,,,,,,0,75,75,75,,,,,,,,num_3,0.684866899974,2019_May_08_1514,59.9526134564,click_exp,001,161158003,
-1,pic/1.png,huan,['num_1'],,,,,,,,,,,,,0,76,76,76,,,,,,,,num_1,0.518356899964,2019_May_08_1514,59.9526134564,click_exp,001,161158003,
-1,pic/3.png,huan,['num_3'],,,,,,,,,,,,,0,77,77,77,,,,,,,,num_3,0.618103599991,2019_May_08_1514,59.9526134564,click_exp,001,161158003,
71,pic/2.png,abc3,['num_2'],,,,,,,,,,,,,0,78,78,78,,,,,,,,num_2,0.534798499953,2019_May_08_1514,59.9526134564,click_exp,001,161158003,
72,pic/8.png,abc3,['num_8'],,,,,,,,,,,,,0,79,79,79,,,,,,,,num_8,0.768365899974,2019_May_08_1514,59.9526134564,click_exp,001,161158003,
73,pic/3.png,abc3,['num_3'],,,,,,,,,,,,,0,80,80,80,,,,,,,,num_3,0.718187599967,2019_May_08_1514,59.9526134564,click_exp,001,161158003,
74,pic/2.png,abc3,['num_2'],,,,,,,,,,,,,0,81,81,81,,,,,,,,num_2,0.568211400008,2019_May_08_1514,59.9526134564,click_exp,001,161158003,
75,pic/8.png,abc3,['num_8'],,,,,,,,,,,,,0,82,82,82,,,,,,,,num_8,0.818711200031,2019_May_08_1514,59.9526134564,click_exp,001,161158003,
76,pic/3.png,abc3,['num_3'],,,,,,,,,,,,,0,83,83,83,,,,,,,,num_3,0.651699399983,2019_May_08_1514,59.9526134564,click_exp,001,161158003,
77,pic/2.png,abc3,['num_2'],,,,,,,,,,,,,0,84,84,84,,,,,,,,num_2,0.601831700013,2019_May_08_1514,59.9526134564,click_exp,001,161158003,
78,pic/8.png,abc3,['num_8'],,,,,,,,,,,,,0,85,85,85,,,,,,,,num_8,0.584966399998,2019_May_08_1514,59.9526134564,click_exp,001,161158003,
79,pic/3.png,abc3,['num_3'],,,,,,,,,,,,,0,86,86,86,,,,,,,,num_3,0.668285399966,2019_May_08_1514,59.9526134564,click_exp,001,161158003,
80,pic/3.png,abc3,['num_3'],,,,,,,,,,,,,0,87,87,87,,,,,,,,num_3,0.518234999967,2019_May_08_1514,59.9526134564,click_exp,001,161158003,
81,pic/6.png,abc3,['num_6'],,,,,,,,,,,,,0,88,88,88,,,,,,,,num_6,0.501468700008,2019_May_08_1514,59.9526134564,click_exp,001,161158003,
82,pic/8.png,abc3,['num_8'],,,,,,,,,,,,,0,89,89,89,,,,,,,,num_8,0.701689900015,2019_May_08_1514,59.9526134564,click_exp,001,161158003,
83,pic/3.png,abc3,['num_3'],,,,,,,,,,,,,0,90,90,90,,,,,,,,num_3,0.568564700021,2019_May_08_1514,59.9526134564,click_exp,001,161158003,
84,pic/6.png,abc3,['num_6'],,,,,,,,,,,,,0,91,91,91,,,,,,,,num_6,0.535096200008,2019_May_08_1514,59.9526134564,click_exp,001,161158003,
85,pic/8.png,abc3,['num_8'],,,,,,,,,,,,,0,92,92,92,,,,,,,,num_8,0.568275600031,2019_May_08_1514,59.9526134564,click_exp,001,161158003,
86,pic/3.png,abc3,['num_3'],,,,,,,,,,,,,0,93,93,93,,,,,,,,num_3,0.501766300004,2019_May_08_1514,59.9526134564,click_exp,001,161158003,
87,pic/6.png,abc3,['num_6'],,,,,,,,,,,,,0,94,94,94,,,,,,,,num_6,0.418193899968,2019_May_08_1514,59.9526134564,click_exp,001,161158003,
88,pic/8.png,abc3,['num_8'],,,,,,,,,,,,,0,95,95,95,,,,,,,,num_8,0.551823000016,2019_May_08_1514,59.9526134564,click_exp,001,161158003,
89,pic/5.png,abc3,['num_5'],,,,,,,,,,,,,0,96,96,96,,,,,,,,num_5,0.518207000045,2019_May_08_1514,59.9526134564,click_exp,001,161158003,
90,pic/8.png,abc3,['num_8'],,,,,,,,,,,,,0,97,97,97,,,,,,,,num_8,0.568614000047,2019_May_08_1514,59.9526134564,click_exp,001,161158003,
91,pic/9.png,abc3,['num_9'],,,,,,,,,,,,,0,98,98,98,,,,,,,,num_9,0.635142899991,2019_May_08_1514,59.9526134564,click_exp,001,161158003,
92,pic/5.png,abc3,['num_5'],,,,,,,,,,,,,0,99,99,99,,,,,,,,num_5,0.468303200032,2019_May_08_1514,59.9526134564,click_exp,001,161158003,
93,pic/8.png,abc3,['num_8'],,,,,,,,,,,,,0,100,100,100,,,,,,,,num_8,0.601982099994,2019_May_08_1514,59.9526134564,click_exp,001,161158003,
94,pic/9.png,abc3,['num_9'],,,,,,,,,,,,,0,101,101,101,,,,,,,,num_9,0.4514738,2019_May_08_1514,59.9526134564,click_exp,001,161158003,
95,pic/5.png,abc3,['num_5'],,,,,,,,,,,,,0,102,102,102,,,,,,,,num_5,0.451470700034,2019_May_08_1514,59.9526134564,click_exp,001,161158003,
96,pic/8.png,abc3,['num_8'],,,,,,,,,,,,,0,103,103,103,,,,,,,,num_8,0.485149500018,2019_May_08_1514,59.9526134564,click_exp,001,161158003,
97,pic/9.png,abc3,['num_9'],,,,,,,,,,,,,0,104,104,104,,,,,,,,num_9,0.484785800043,2019_May_08_1514,59.9526134564,click_exp,001,161158003,
