no,pic,cla,ans,trials_prac.thisRepN,trials_prac.thisTrialN,trials_prac.thisN,trials_prac.thisIndex,trials_huan.thisRepN,trials_huan.thisTrialN,trials_huan.thisN,trials_huan.thisIndex,trials_baseline.thisRepN,trials_baseline.thisTrialN,trials_baseline.thisN,trials_baseline.thisIndex,trials_formal.thisRepN,trials_formal.thisTrialN,trials_formal.thisN,trials_formal.thisIndex,key_resp_2.keys,key_resp_2.corr,key_resp_2.rt,key_resp_huan.keys,key_resp_huan.rt,key_resp_base.keys,key_resp_base.rt,key_resp_for.keys,key_resp_for.rt,date,frameRate,expName,session,participant,
6,pic/6.png,baseline,['num_6'],,,,,,,,,0,0,0,5,,,,,num_6,0,0.38590969998,num_2,0.452448999975,num_6,0.356087699998,,,2019_May_07_1744,59.9001823362,click_exp,001,171810006,
25,pic/7.png,baseline,['num_7'],,,,,,,,,0,1,1,24,,,,,,,,,,num_7,0.437155500025,,,2019_May_07_1744,59.9001823362,click_exp,001,171810006,
8,pic/8.png,baseline,['num_8'],,,,,,,,,0,2,2,7,,,,,,,,,,num_8,0.402775200026,,,2019_May_07_1744,59.9001823362,click_exp,001,171810006,
17,pic/8.png,baseline,['num_8'],,,,,,,,,0,3,3,16,,,,,,,,,,num_8,0.381662300002,,,2019_May_07_1744,59.9001823362,click_exp,001,171810006,
2,pic/2.png,baseline,['num_2'],,,,,,,,,0,4,4,1,,,,,,,,,,num_2,0.503758600011,,,2019_May_07_1744,59.9001823362,click_exp,001,171810006,
9,pic/9.png,baseline,['num_9'],,,,,,,,,0,5,5,8,,,,,,,,,,num_9,0.455076699989,,,2019_May_07_1744,59.9001823362,click_exp,001,171810006,
5,pic/5.png,baseline,['num_5'],,,,,,,,,0,6,6,4,,,,,,,,,,num_5,0.319813899987,,,2019_May_07_1744,59.9001823362,click_exp,001,171810006,
16,pic/7.png,baseline,['num_7'],,,,,,,,,0,7,7,15,,,,,,,,,,num_7,0.4357304,,,2019_May_07_1744,59.9001823362,click_exp,001,171810006,
10,pic/1.png,baseline,['num_1'],,,,,,,,,0,8,8,9,,,,,,,,,,num_1,0.890201599977,,,2019_May_07_1744,59.9001823362,click_exp,001,171810006,
18,pic/9.png,baseline,['num_9'],,,,,,,,,0,9,9,17,,,,,,,,,,num_9,0.484921300027,,,2019_May_07_1744,59.9001823362,click_exp,001,171810006,
24,pic/6.png,baseline,['num_6'],,,,,,,,,0,10,10,23,,,,,,,,,,num_6,0.4023093,,,2019_May_07_1744,59.9001823362,click_exp,001,171810006,
4,pic/4.png,baseline,['num_4'],,,,,,,,,0,11,11,3,,,,,,,,,,num_4,0.452967999998,,,2019_May_07_1744,59.9001823362,click_exp,001,171810006,
14,pic/5.png,baseline,['num_5'],,,,,,,,,0,12,12,13,,,,,,,,,,num_5,0.368667400006,,,2019_May_07_1744,59.9001823362,click_exp,001,171810006,
13,pic/4.png,baseline,['num_4'],,,,,,,,,0,13,13,12,,,,,,,,,,num_4,0.399400900002,,,2019_May_07_1744,59.9001823362,click_exp,001,171810006,
21,pic/3.png,baseline,['num_3'],,,,,,,,,0,14,14,20,,,,,,,,,,num_3,0.617841300002,,,2019_May_07_1744,59.9001823362,click_exp,001,171810006,
20,pic/2.png,baseline,['num_2'],,,,,,,,,0,15,15,19,,,,,,,,,,num_2,0.519653900003,,,2019_May_07_1744,59.9001823362,click_exp,001,171810006,
22,pic/4.png,baseline,['num_4'],,,,,,,,,0,16,16,21,,,,,,,,,,num_4,0.353056499996,,,2019_May_07_1744,59.9001823362,click_exp,001,171810006,
12,pic/3.png,baseline,['num_3'],,,,,,,,,0,17,17,11,,,,,,,,,,num_3,0.470321500005,,,2019_May_07_1744,59.9001823362,click_exp,001,171810006,
3,pic/3.png,baseline,['num_3'],,,,,,,,,0,18,18,2,,,,,,,,,,num_3,0.435732599988,,,2019_May_07_1744,59.9001823362,click_exp,001,171810006,
19,pic/1.png,baseline,['num_1'],,,,,,,,,0,19,19,18,,,,,,,,,,num_1,0.552551300003,,,2019_May_07_1744,59.9001823362,click_exp,001,171810006,
1,pic/1.png,baseline,['num_1'],,,,,,,,,0,20,20,0,,,,,,,,,,num_1,0.420140000002,,,2019_May_07_1744,59.9001823362,click_exp,001,171810006,
15,pic/6.png,baseline,['num_6'],,,,,,,,,0,21,21,14,,,,,,,,,,num_6,0.485612999997,,,2019_May_07_1744,59.9001823362,click_exp,001,171810006,
26,pic/8.png,baseline,['num_8'],,,,,,,,,0,22,22,25,,,,,,,,,,num_8,0.453544100019,,,2019_May_07_1744,59.9001823362,click_exp,001,171810006,
23,pic/5.png,baseline,['num_5'],,,,,,,,,0,23,23,22,,,,,,,,,,num_5,0.402472999995,,,2019_May_07_1744,59.9001823362,click_exp,001,171810006,
11,pic/2.png,baseline,['num_2'],,,,,,,,,0,24,24,10,,,,,,,,,,num_2,0.419190799992,,,2019_May_07_1744,59.9001823362,click_exp,001,171810006,
7,pic/7.png,baseline,['num_7'],,,,,,,,,0,25,25,6,,,,,,,,,,num_7,0.484226400004,,,2019_May_07_1744,59.9001823362,click_exp,001,171810006,
27,pic/9.png,baseline,['num_9'],,,,,,,,,0,26,26,26,,,,,,,,,,num_9,0.436705300002,,,2019_May_07_1744,59.9001823362,click_exp,001,171810006,
1,pic/9.png,aa,['num_9'],,,,,,,,,,,,,0,0,0,0,,,,,,,,num_9,0.478906500008,2019_May_07_1744,59.9001823362,click_exp,001,171810006,
2,pic/9.png,aa,['num_9'],,,,,,,,,,,,,0,1,1,1,,,,,,,,num_9,0.435458599997,2019_May_07_1744,59.9001823362,click_exp,001,171810006,
3,pic/5.png,aa,['num_5'],,,,,,,,,,,,,0,2,2,2,,,,,,,,num_5,0.435404699994,2019_May_07_1744,59.9001823362,click_exp,001,171810006,
4,pic/5.png,aa,['num_5'],,,,,,,,,,,,,0,3,3,3,,,,,,,,num_5,0.518728900002,2019_May_07_1744,59.9001823362,click_exp,001,171810006,
5,pic/8.png,aa,['num_8'],,,,,,,,,,,,,0,4,4,4,,,,,,,,num_8,0.484834999981,2019_May_07_1744,59.9001823362,click_exp,001,171810006,
6,pic/8.png,aa,['num_8'],,,,,,,,,,,,,0,5,5,5,,,,,,,,num_8,0.386143600015,2019_May_07_1744,59.9001823362,click_exp,001,171810006,
7,pic/6.png,aa,['num_6'],,,,,,,,,,,,,0,6,6,6,,,,,,,,num_6,0.470221600001,2019_May_07_1744,59.9001823362,click_exp,001,171810006,
8,pic/6.png,aa,['num_6'],,,,,,,,,,,,,0,7,7,7,,,,,,,,num_6,0.487114200019,2019_May_07_1744,59.9001823362,click_exp,001,171810006,
9,pic/1.png,aa,['num_1'],,,,,,,,,,,,,0,8,8,8,,,,,,,,num_1,0.619273600023,2019_May_07_1744,59.9001823362,click_exp,001,171810006,
10,pic/1.png,aa,['num_1'],,,,,,,,,,,,,0,9,9,9,,,,,,,,num_1,0.48688750001,2019_May_07_1744,59.9001823362,click_exp,001,171810006,
-1,pic/6.png,huan,['num_6'],,,,,,,,,,,,,0,10,10,10,,,,,,,,num_6,0.3687164,2019_May_07_1744,59.9001823362,click_exp,001,171810006,
-1,pic/7.png,huan,['num_7'],,,,,,,,,,,,,0,11,11,11,,,,,,,,num_7,0.48686189999,2019_May_07_1744,59.9001823362,click_exp,001,171810006,
11,pic/6.png,aaa,['num_6'],,,,,,,,,,,,,0,12,12,12,,,,,,,,num_6,0.318594299984,2019_May_07_1744,59.9001823362,click_exp,001,171810006,
12,pic/6.png,aaa,['num_6'],,,,,,,,,,,,,0,13,13,13,,,,,,,,num_6,0.336423900008,2019_May_07_1744,59.9001823362,click_exp,001,171810006,
13,pic/6.png,aaa,['num_6'],,,,,,,,,,,,,0,14,14,14,,,,,,,,num_6,0.386487699987,2019_May_07_1744,59.9001823362,click_exp,001,171810006,
14,pic/5.png,aaa,['num_5'],,,,,,,,,,,,,0,15,15,15,,,,,,,,num_5,0.389238000003,2019_May_07_1744,59.9001823362,click_exp,001,171810006,
15,pic/5.png,aaa,['num_5'],,,,,,,,,,,,,0,16,16,16,,,,,,,,num_5,0.353246199986,2019_May_07_1744,59.9001823362,click_exp,001,171810006,
16,pic/5.png,aaa,['num_5'],,,,,,,,,,,,,0,17,17,17,,,,,,,,num_5,0.302821999998,2019_May_07_1744,59.9001823362,click_exp,001,171810006,
17,pic/8.png,aaa,['num_8'],,,,,,,,,,,,,0,18,18,18,,,,,,,,num_8,0.436345499998,2019_May_07_1744,59.9001823362,click_exp,001,171810006,
18,pic/8.png,aaa,['num_8'],,,,,,,,,,,,,0,19,19,19,,,,,,,,num_8,0.385007300007,2019_May_07_1744,59.9001823362,click_exp,001,171810006,
19,pic/8.png,aaa,['num_8'],,,,,,,,,,,,,0,20,20,20,,,,,,,,num_8,0.319276199996,2019_May_07_1744,59.9001823362,click_exp,001,171810006,
20,pic/4.png,aaa,['num_4'],,,,,,,,,,,,,0,21,21,21,,,,,,,,num_4,0.453237499984,2019_May_07_1744,59.9001823362,click_exp,001,171810006,
21,pic/4.png,aaa,['num_4'],,,,,,,,,,,,,0,22,22,22,,,,,,,,num_4,0.301952000009,2019_May_07_1744,59.9001823362,click_exp,001,171810006,
22,pic/4.png,aaa,['num_4'],,,,,,,,,,,,,0,23,23,23,,,,,,,,num_4,0.234258899989,2019_May_07_1744,59.9001823362,click_exp,001,171810006,
-1,pic/8.png,huan,['num_8'],,,,,,,,,,,,,0,24,24,24,,,,,,,,num_8,0.434819699993,2019_May_07_1744,59.9001823362,click_exp,001,171810006,
-1,pic/7.png,huan,['num_7'],,,,,,,,,,,,,0,25,25,25,,,,,,,,num_7,0.485899899999,2019_May_07_1744,59.9001823362,click_exp,001,171810006,
23,pic/6.png,abb,['num_6'],,,,,,,,,,,,,0,26,26,26,,,,,,,,num_6,0.402175499999,2019_May_07_1744,59.9001823362,click_exp,001,171810006,
24,pic/5.png,abb,['num_5'],,,,,,,,,,,,,0,27,27,27,,,,,,,,num_5,0.467438199994,2019_May_07_1744,59.9001823362,click_exp,001,171810006,
25,pic/5.png,abb,['num_5'],,,,,,,,,,,,,0,28,28,28,,,,,,,,num_5,0.45265989998,2019_May_07_1744,59.9001823362,click_exp,001,171810006,
26,pic/5.png,abb,['num_5'],,,,,,,,,,,,,0,29,29,29,,,,,,,,num_5,0.369269499992,2019_May_07_1744,59.9001823362,click_exp,001,171810006,
27,pic/2.png,abb,['num_2'],,,,,,,,,,,,,0,30,30,30,,,,,,,,num_2,0.618094800011,2019_May_07_1744,59.9001823362,click_exp,001,171810006,
28,pic/2.png,abb,['num_2'],,,,,,,,,,,,,0,31,31,31,,,,,,,,num_2,0.518876799993,2019_May_07_1744,59.9001823362,click_exp,001,171810006,
29,pic/9.png,abb,['num_9'],,,,,,,,,,,,,0,32,32,32,,,,,,,,num_9,0.569920200011,2019_May_07_1744,59.9001823362,click_exp,001,171810006,
30,pic/2.png,abb,['num_2'],,,,,,,,,,,,,0,33,33,33,,,,,,,,num_2,0.466971900023,2019_May_07_1744,59.9001823362,click_exp,001,171810006,
31,pic/2.png,abb,['num_2'],,,,,,,,,,,,,0,34,34,34,,,,,,,,num_2,0.536694000009,2019_May_07_1744,59.9001823362,click_exp,001,171810006,
32,pic/4.png,abb,['num_4'],,,,,,,,,,,,,0,35,35,35,,,,,,,,num_4,0.402990000002,2019_May_07_1744,59.9001823362,click_exp,001,171810006,
33,pic/8.png,abb,['num_8'],,,,,,,,,,,,,0,36,36,36,,,,,,,,num_8,0.452905100014,2019_May_07_1744,59.9001823362,click_exp,001,171810006,
34,pic/8.png,abb,['num_8'],,,,,,,,,,,,,0,37,37,37,,,,,,,,num_8,0.485025800008,2019_May_07_1744,59.9001823362,click_exp,001,171810006,
35,pic/1.png,abb,['num_1'],,,,,,,,,,,,,0,38,38,38,,,,,,,,num_1,0.486146800016,2019_May_07_1744,59.9001823362,click_exp,001,171810006,
36,pic/6.png,abb,['num_6'],,,,,,,,,,,,,0,39,39,39,,,,,,,,num_6,0.386076099996,2019_May_07_1744,59.9001823362,click_exp,001,171810006,
37,pic/6.png,abb,['num_6'],,,,,,,,,,,,,0,40,40,40,,,,,,,,num_6,0.351338999986,2019_May_07_1744,59.9001823362,click_exp,001,171810006,
38,pic/5.png,abb,['num_5'],,,,,,,,,,,,,0,41,41,41,,,,,,,,num_5,0.436476500006,2019_May_07_1744,59.9001823362,click_exp,001,171810006,
39,pic/4.png,abb,['num_4'],,,,,,,,,,,,,0,42,42,42,,,,,,,,num_4,0.36950890001,2019_May_07_1744,59.9001823362,click_exp,001,171810006,
40,pic/4.png,abb,['num_4'],,,,,,,,,,,,,0,43,43,43,,,,,,,,num_4,0.471762200003,2019_May_07_1744,59.9001823362,click_exp,001,171810006,
41,pic/7.png,abb,['num_7'],,,,,,,,,,,,,0,44,44,44,,,,,,,,num_7,0.469049200008,2019_May_07_1744,59.9001823362,click_exp,001,171810006,
42,pic/1.png,abb,['num_1'],,,,,,,,,,,,,0,45,45,45,,,,,,,,num_1,0.469389899983,2019_May_07_1744,59.9001823362,click_exp,001,171810006,
43,pic/1.png,abb,['num_1'],,,,,,,,,,,,,0,46,46,46,,,,,,,,num_1,0.5201199,2019_May_07_1744,59.9001823362,click_exp,001,171810006,
44,pic/9.png,abb,['num_9'],,,,,,,,,,,,,0,47,47,47,,,,,,,,num_9,0.418807300011,2019_May_07_1744,59.9001823362,click_exp,001,171810006,
45,pic/5.png,abb,['num_5'],,,,,,,,,,,,,0,48,48,48,,,,,,,,num_5,0.453110700008,2019_May_07_1744,59.9001823362,click_exp,001,171810006,
46,pic/5.png,abb,['num_5'],,,,,,,,,,,,,0,49,49,49,,,,,,,,num_5,0.352568300004,2019_May_07_1744,59.9001823362,click_exp,001,171810006,
-1,pic/1.png,huan,['num_1'],,,,,,,,,,,,,0,50,50,50,,,,,,,,num_1,0.618574399996,2019_May_07_1744,59.9001823362,click_exp,001,171810006,
-1,pic/2.png,huan,['num_2'],,,,,,,,,,,,,0,51,51,51,,,,,,,,num_2,0.536178299983,2019_May_07_1744,59.9001823362,click_exp,001,171810006,
47,pic/4.png,wh,['num_4'],,,,,,,,,,,,,0,52,52,52,,,,,,,,num_4,0.452954799985,2019_May_07_1744,59.9001823362,click_exp,001,171810006,
48,pic/5.png,wh,['num_5'],,,,,,,,,,,,,0,53,53,53,,,,,,,,num_5,0.334881499992,2019_May_07_1744,59.9001823362,click_exp,001,171810006,
49,pic/6.png,wh,['num_6'],,,,,,,,,,,,,0,54,54,54,,,,,,,,num_6,0.318666799983,2019_May_07_1744,59.9001823362,click_exp,001,171810006,
50,pic/2.png,wh,['num_2'],,,,,,,,,,,,,0,55,55,55,,,,,,,,num_2,0.502206100005,2019_May_07_1744,59.9001823362,click_exp,001,171810006,
51,pic/5.png,wh,['num_5'],,,,,,,,,,,,,0,56,56,56,,,,,,,,num_5,0.369730300008,2019_May_07_1744,59.9001823362,click_exp,001,171810006,
52,pic/8.png,wh,['num_8'],,,,,,,,,,,,,0,57,57,57,,,,,,,,num_8,0.41949879998,2019_May_07_1744,59.9001823362,click_exp,001,171810006,
53,pic/2.png,wh,['num_2'],,,,,,,,,,,,,0,58,58,58,,,,,,,,num_2,0.585793900013,2019_May_07_1744,59.9001823362,click_exp,001,171810006,
54,pic/5.png,wh,['num_5'],,,,,,,,,,,,,0,59,59,59,,,,,,,,num_5,0.302287500002,2019_May_07_1744,59.9001823362,click_exp,001,171810006,
55,pic/8.png,wh,['num_8'],,,,,,,,,,,,,0,60,60,60,,,,,,,,num_8,0.452558899997,2019_May_07_1744,59.9001823362,click_exp,001,171810006,
56,pic/7.png,wh,['num_7'],,,,,,,,,,,,,0,61,61,61,,,,,,,,num_7,0.501694300008,2019_May_07_1744,59.9001823362,click_exp,001,171810006,
57,pic/8.png,wh,['num_8'],,,,,,,,,,,,,0,62,62,62,,,,,,,,num_8,0.435695600027,2019_May_07_1744,59.9001823362,click_exp,001,171810006,
58,pic/9.png,wh,['num_9'],,,,,,,,,,,,,0,63,63,63,,,,,,,,num_9,0.502638299979,2019_May_07_1744,59.9001823362,click_exp,001,171810006,
59,pic/3.png,cross,['num_3'],,,,,,,,,,,,,0,64,64,64,,,,,,,,num_3,0.519152299996,2019_May_07_1744,59.9001823362,click_exp,001,171810006,
60,pic/5.png,cross,['num_5'],,,,,,,,,,,,,0,65,65,65,,,,,,,,num_5,0.352813800011,2019_May_07_1744,59.9001823362,click_exp,001,171810006,
61,pic/7.png,cross,['num_7'],,,,,,,,,,,,,0,66,66,66,,,,,,,,num_7,0.486382000003,2019_May_07_1744,59.9001823362,click_exp,001,171810006,
62,pic/7.png,cross,['num_7'],,,,,,,,,,,,,0,67,67,67,,,,,,,,num_7,0.418845599983,2019_May_07_1744,59.9001823362,click_exp,001,171810006,
63,pic/5.png,cross,['num_5'],,,,,,,,,,,,,0,68,68,68,,,,,,,,num_5,0.40235639998,2019_May_07_1744,59.9001823362,click_exp,001,171810006,
64,pic/3.png,cross,['num_3'],,,,,,,,,,,,,0,69,69,69,,,,,,,,num_3,0.536374400021,2019_May_07_1744,59.9001823362,click_exp,001,171810006,
65,pic/7.png,cross,['num_7'],,,,,,,,,,,,,0,70,70,70,,,,,,,,num_7,0.436396200006,2019_May_07_1744,59.9001823362,click_exp,001,171810006,
66,pic/5.png,cross,['num_5'],,,,,,,,,,,,,0,71,71,71,,,,,,,,num_5,0.336393500009,2019_May_07_1744,59.9001823362,click_exp,001,171810006,
67,pic/3.png,cross,['num_3'],,,,,,,,,,,,,0,72,72,72,,,,,,,,num_3,0.486298000003,2019_May_07_1744,59.9001823362,click_exp,001,171810006,
68,pic/7.png,cross,['num_7'],,,,,,,,,,,,,0,73,73,73,,,,,,,,num_7,0.454148699995,2019_May_07_1744,59.9001823362,click_exp,001,171810006,
69,pic/5.png,cross,['num_5'],,,,,,,,,,,,,0,74,74,74,,,,,,,,num_5,0.35233579998,2019_May_07_1744,59.9001823362,click_exp,001,171810006,
70,pic/3.png,cross,['num_3'],,,,,,,,,,,,,0,75,75,75,,,,,,,,num_3,0.351419400016,2019_May_07_1744,59.9001823362,click_exp,001,171810006,
-1,pic/9.png,huan,['num_9'],,,,,,,,,,,,,0,76,76,76,,,,,,,,num_9,0.48589880002,2019_May_07_1744,59.9001823362,click_exp,001,171810006,
-1,pic/4.png,huan,['num_4'],,,,,,,,,,,,,0,77,77,77,,,,,,,,num_4,0.402791600005,2019_May_07_1744,59.9001823362,click_exp,001,171810006,
71,pic/5.png,abc3,['num_5'],,,,,,,,,,,,,0,78,78,78,,,,,,,,num_5,0.335486999975,2019_May_07_1744,59.9001823362,click_exp,001,171810006,
72,pic/9.png,abc3,['num_9'],,,,,,,,,,,,,0,79,79,79,,,,,,,,num_9,0.46945579999,2019_May_07_1744,59.9001823362,click_exp,001,171810006,
73,pic/8.png,abc3,['num_8'],,,,,,,,,,,,,0,80,80,80,,,,,,,,num_8,0.419257800007,2019_May_07_1744,59.9001823362,click_exp,001,171810006,
74,pic/5.png,abc3,['num_5'],,,,,,,,,,,,,0,81,81,81,,,,,,,,num_5,0.402068800002,2019_May_07_1744,59.9001823362,click_exp,001,171810006,
75,pic/9.png,abc3,['num_9'],,,,,,,,,,,,,0,82,82,82,,,,,,,,num_9,0.453008000011,2019_May_07_1744,59.9001823362,click_exp,001,171810006,
76,pic/8.png,abc3,['num_8'],,,,,,,,,,,,,0,83,83,83,,,,,,,,num_8,0.418413100007,2019_May_07_1744,59.9001823362,click_exp,001,171810006,
77,pic/5.png,abc3,['num_5'],,,,,,,,,,,,,0,84,84,84,,,,,,,,num_5,0.419444400002,2019_May_07_1744,59.9001823362,click_exp,001,171810006,
78,pic/9.png,abc3,['num_9'],,,,,,,,,,,,,0,85,85,85,,,,,,,,num_9,0.369071099994,2019_May_07_1744,59.9001823362,click_exp,001,171810006,
79,pic/8.png,abc3,['num_8'],,,,,,,,,,,,,0,86,86,86,,,,,,,,num_8,0.302483999985,2019_May_07_1744,59.9001823362,click_exp,001,171810006,
80,pic/4.png,abc3,['num_4'],,,,,,,,,,,,,0,87,87,87,,,,,,,,num_4,0.386008100002,2019_May_07_1744,59.9001823362,click_exp,001,171810006,
81,pic/3.png,abc3,['num_3'],,,,,,,,,,,,,0,88,88,88,,,,,,,,num_3,0.602780799993,2019_May_07_1744,59.9001823362,click_exp,001,171810006,
82,pic/1.png,abc3,['num_1'],,,,,,,,,,,,,0,89,89,89,,,,,,,,num_1,0.502243399998,2019_May_07_1744,59.9001823362,click_exp,001,171810006,
83,pic/4.png,abc3,['num_4'],,,,,,,,,,,,,0,90,90,90,,,,,,,,num_4,0.418976500019,2019_May_07_1744,59.9001823362,click_exp,001,171810006,
84,pic/3.png,abc3,['num_3'],,,,,,,,,,,,,0,91,91,91,,,,,,,,num_3,0.468872099998,2019_May_07_1744,59.9001823362,click_exp,001,171810006,
85,pic/1.png,abc3,['num_1'],,,,,,,,,,,,,0,92,92,92,,,,,,,,num_1,0.518864800018,2019_May_07_1744,59.9001823362,click_exp,001,171810006,
86,pic/4.png,abc3,['num_4'],,,,,,,,,,,,,0,93,93,93,,,,,,,,num_4,0.453289800003,2019_May_07_1744,59.9001823362,click_exp,001,171810006,
87,pic/3.png,abc3,['num_3'],,,,,,,,,,,,,0,94,94,94,,,,,,,,num_3,0.436152899987,2019_May_07_1744,59.9001823362,click_exp,001,171810006,
88,pic/1.png,abc3,['num_1'],,,,,,,,,,,,,0,95,95,95,,,,,,,,num_1,0.469274599978,2019_May_07_1744,59.9001823362,click_exp,001,171810006,
89,pic/3.png,abc3,['num_3'],,,,,,,,,,,,,0,96,96,96,,,,,,,,num_3,0.35227480001,2019_May_07_1744,59.9001823362,click_exp,001,171810006,
90,pic/4.png,abc3,['num_4'],,,,,,,,,,,,,0,97,97,97,,,,,,,,num_4,0.353610599996,2019_May_07_1744,59.9001823362,click_exp,001,171810006,
91,pic/7.png,abc3,['num_7'],,,,,,,,,,,,,0,98,98,98,,,,,,,,num_7,0.519780600007,2019_May_07_1744,59.9001823362,click_exp,001,171810006,
92,pic/3.png,abc3,['num_3'],,,,,,,,,,,,,0,99,99,99,,,,,,,,num_3,0.4868097,2019_May_07_1744,59.9001823362,click_exp,001,171810006,
93,pic/4.png,abc3,['num_4'],,,,,,,,,,,,,0,100,100,100,,,,,,,,num_4,0.453299699991,2019_May_07_1744,59.9001823362,click_exp,001,171810006,
94,pic/7.png,abc3,['num_7'],,,,,,,,,,,,,0,101,101,101,,,,,,,,num_7,0.503964200005,2019_May_07_1744,59.9001823362,click_exp,001,171810006,
95,pic/3.png,abc3,['num_3'],,,,,,,,,,,,,0,102,102,102,,,,,,,,num_3,0.334747999994,2019_May_07_1744,59.9001823362,click_exp,001,171810006,
96,pic/4.png,abc3,['num_4'],,,,,,,,,,,,,0,103,103,103,,,,,,,,num_4,0.369546900009,2019_May_07_1744,59.9001823362,click_exp,001,171810006,
97,pic/7.png,abc3,['num_7'],,,,,,,,,,,,,0,104,104,104,,,,,,,,num_7,0.466599100007,2019_May_07_1744,59.9001823362,click_exp,001,171810006,
