no,pic,cla,ans,trials_prac.thisRepN,trials_prac.thisTrialN,trials_prac.thisN,trials_prac.thisIndex,trials_huan.thisRepN,trials_huan.thisTrialN,trials_huan.thisN,trials_huan.thisIndex,trials_baseline.thisRepN,trials_baseline.thisTrialN,trials_baseline.thisN,trials_baseline.thisIndex,trials_formal.thisRepN,trials_formal.thisTrialN,trials_formal.thisN,trials_formal.thisIndex,key_resp_2.keys,key_resp_2.corr,key_resp_2.rt,key_resp_huan.keys,key_resp_huan.rt,key_resp_base.keys,key_resp_base.rt,key_resp_for.keys,key_resp_for.rt,date,frameRate,expName,session,participant,
12,pic/3.png,baseline,['num_3'],,,,,,,,,0,0,0,11,,,,,num_4,0,0.41782469998,num_9,0.718088100024,num_3,0.668698499998,,,2019_May_07_1043,59.9101587184,click_exp,001,171820009,
18,pic/9.png,baseline,['num_9'],,,,,,,,,0,1,1,17,,,,,,,,,,num_9,0.734645299992,,,2019_May_07_1043,59.9101587184,click_exp,001,171820009,
10,pic/1.png,baseline,['num_1'],,,,,,,,,0,2,2,9,,,,,,,,,,num_1,0.484496400022,,,2019_May_07_1043,59.9101587184,click_exp,001,171820009,
19,pic/1.png,baseline,['num_1'],,,,,,,,,0,3,3,18,,,,,,,,,,num_1,0.467889099993,,,2019_May_07_1043,59.9101587184,click_exp,001,171820009,
4,pic/4.png,baseline,['num_4'],,,,,,,,,0,4,4,3,,,,,,,,,,num_4,0.467894500005,,,2019_May_07_1043,59.9101587184,click_exp,001,171820009,
9,pic/9.png,baseline,['num_9'],,,,,,,,,0,5,5,8,,,,,,,,,,num_9,0.66821850001,,,2019_May_07_1043,59.9101587184,click_exp,001,171820009,
21,pic/3.png,baseline,['num_3'],,,,,,,,,0,6,6,20,,,,,,,,,,num_3,0.6680528,,,2019_May_07_1043,59.9101587184,click_exp,001,171820009,
1,pic/1.png,baseline,['num_1'],,,,,,,,,0,7,7,0,,,,,,,,,,num_1,0.501427999989,,,2019_May_07_1043,59.9101587184,click_exp,001,171820009,
17,pic/8.png,baseline,['num_8'],,,,,,,,,0,8,8,16,,,,,,,,,,num_8,0.634806899994,,,2019_May_07_1043,59.9101587184,click_exp,001,171820009,
22,pic/4.png,baseline,['num_4'],,,,,,,,,0,9,9,21,,,,,,,,,,num_4,0.484724699985,,,2019_May_07_1043,59.9101587184,click_exp,001,171820009,
27,pic/9.png,baseline,['num_9'],,,,,,,,,0,10,10,26,,,,,,,,,,num_9,0.6679534,,,2019_May_07_1043,59.9101587184,click_exp,001,171820009,
3,pic/3.png,baseline,['num_3'],,,,,,,,,0,11,11,2,,,,,,,,,,num_3,0.584999000013,,,2019_May_07_1043,59.9101587184,click_exp,001,171820009,
24,pic/6.png,baseline,['num_6'],,,,,,,,,0,12,12,23,,,,,,,,,,num_6,0.451229500002,,,2019_May_07_1043,59.9101587184,click_exp,001,171820009,
14,pic/5.png,baseline,['num_5'],,,,,,,,,0,13,13,13,,,,,,,,,,num_5,0.484603899997,,,2019_May_07_1043,59.9101587184,click_exp,001,171820009,
16,pic/7.png,baseline,['num_7'],,,,,,,,,0,14,14,15,,,,,,,,,,num_7,1.1017542,,,2019_May_07_1043,59.9101587184,click_exp,001,171820009,
23,pic/5.png,baseline,['num_5'],,,,,,,,,0,15,15,22,,,,,,,,,,num_5,0.568072199996,,,2019_May_07_1043,59.9101587184,click_exp,001,171820009,
8,pic/8.png,baseline,['num_8'],,,,,,,,,0,16,16,7,,,,,,,,,,num_8,0.684714700008,,,2019_May_07_1043,59.9101587184,click_exp,001,171820009,
11,pic/2.png,baseline,['num_2'],,,,,,,,,0,17,17,10,,,,,,,,,,num_2,0.634798700019,,,2019_May_07_1043,59.9101587184,click_exp,001,171820009,
7,pic/7.png,baseline,['num_7'],,,,,,,,,0,18,18,6,,,,,,,,,,num_7,0.484639499977,,,2019_May_07_1043,59.9101587184,click_exp,001,171820009,
25,pic/7.png,baseline,['num_7'],,,,,,,,,0,19,19,24,,,,,,,,,,num_7,0.434531899984,,,2019_May_07_1043,59.9101587184,click_exp,001,171820009,
26,pic/8.png,baseline,['num_8'],,,,,,,,,0,20,20,25,,,,,,,,,,num_8,0.651456899999,,,2019_May_07_1043,59.9101587184,click_exp,001,171820009,
2,pic/2.png,baseline,['num_2'],,,,,,,,,0,21,21,1,,,,,,,,,,num_2,0.717784099979,,,2019_May_07_1043,59.9101587184,click_exp,001,171820009,
15,pic/6.png,baseline,['num_6'],,,,,,,,,0,22,22,14,,,,,,,,,,num_6,0.467859199998,,,2019_May_07_1043,59.9101587184,click_exp,001,171820009,
20,pic/2.png,baseline,['num_2'],,,,,,,,,0,23,23,19,,,,,,,,,,num_2,0.651529199997,,,2019_May_07_1043,59.9101587184,click_exp,001,171820009,
13,pic/4.png,baseline,['num_4'],,,,,,,,,0,24,24,12,,,,,,,,,,num_4,0.517976200004,,,2019_May_07_1043,59.9101587184,click_exp,001,171820009,
5,pic/5.png,baseline,['num_5'],,,,,,,,,0,25,25,4,,,,,,,,,,num_5,0.568470300001,,,2019_May_07_1043,59.9101587184,click_exp,001,171820009,
6,pic/6.png,baseline,['num_6'],,,,,,,,,0,26,26,5,,,,,,,,,,num_6,0.468184199999,,,2019_May_07_1043,59.9101587184,click_exp,001,171820009,
1,pic/2.png,aa,['num_2'],,,,,,,,,,,,,0,0,0,0,,,,,,,,num_2,0.700086299999,2019_May_07_1043,59.9101587184,click_exp,001,171820009,
2,pic/2.png,aa,['num_2'],,,,,,,,,,,,,0,1,1,1,,,,,,,,num_2,0.534673499991,2019_May_07_1043,59.9101587184,click_exp,001,171820009,
3,pic/7.png,aa,['num_7'],,,,,,,,,,,,,0,2,2,2,,,,,,,,num_7,0.651392700005,2019_May_07_1043,59.9101587184,click_exp,001,171820009,
4,pic/7.png,aa,['num_7'],,,,,,,,,,,,,0,3,3,3,,,,,,,,num_7,0.584796099982,2019_May_07_1043,59.9101587184,click_exp,001,171820009,
5,pic/3.png,aa,['num_3'],,,,,,,,,,,,,0,4,4,4,,,,,,,,num_3,0.718372600008,2019_May_07_1043,59.9101587184,click_exp,001,171820009,
6,pic/3.png,aa,['num_3'],,,,,,,,,,,,,0,5,5,5,,,,,,,,num_3,0.601225499995,2019_May_07_1043,59.9101587184,click_exp,001,171820009,
7,pic/9.png,aa,['num_9'],,,,,,,,,,,,,0,6,6,6,,,,,,,,num_9,0.668016799988,2019_May_07_1043,59.9101587184,click_exp,001,171820009,
8,pic/9.png,aa,['num_9'],,,,,,,,,,,,,0,7,7,7,,,,,,,,num_9,0.601370399992,2019_May_07_1043,59.9101587184,click_exp,001,171820009,
9,pic/6.png,aa,['num_6'],,,,,,,,,,,,,0,8,8,8,,,,,,,,num_6,0.584707400005,2019_May_07_1043,59.9101587184,click_exp,001,171820009,
10,pic/6.png,aa,['num_6'],,,,,,,,,,,,,0,9,9,9,,,,,,,,num_6,0.434444199986,2019_May_07_1043,59.9101587184,click_exp,001,171820009,
-1,pic/7.png,huan,['num_7'],,,,,,,,,,,,,0,10,10,10,,,,,,,,num_7,0.551369499997,2019_May_07_1043,59.9101587184,click_exp,001,171820009,
-1,pic/9.png,huan,['num_9'],,,,,,,,,,,,,0,11,11,11,,,,,,,,num_9,0.651486599992,2019_May_07_1043,59.9101587184,click_exp,001,171820009,
11,pic/4.png,aaa,['num_4'],,,,,,,,,,,,,0,12,12,12,,,,,,,,num_4,0.484607700026,2019_May_07_1043,59.9101587184,click_exp,001,171820009,
12,pic/4.png,aaa,['num_4'],,,,,,,,,,,,,0,13,13,13,,,,,,,,num_4,0.434505900019,2019_May_07_1043,59.9101587184,click_exp,001,171820009,
13,pic/4.png,aaa,['num_4'],,,,,,,,,,,,,0,14,14,14,,,,,,,,num_4,0.401271900017,2019_May_07_1043,59.9101587184,click_exp,001,171820009,
14,pic/6.png,aaa,['num_6'],,,,,,,,,,,,,0,15,15,15,,,,,,,,num_6,0.551344999985,2019_May_07_1043,59.9101587184,click_exp,001,171820009,
15,pic/6.png,aaa,['num_6'],,,,,,,,,,,,,0,16,16,16,,,,,,,,num_6,0.501533999981,2019_May_07_1043,59.9101587184,click_exp,001,171820009,
16,pic/6.png,aaa,['num_6'],,,,,,,,,,,,,0,17,17,17,,,,,,,,num_6,0.418037099997,2019_May_07_1043,59.9101587184,click_exp,001,171820009,
17,pic/7.png,aaa,['num_7'],,,,,,,,,,,,,0,18,18,18,,,,,,,,num_7,0.651336200011,2019_May_07_1043,59.9101587184,click_exp,001,171820009,
18,pic/7.png,aaa,['num_7'],,,,,,,,,,,,,0,19,19,19,,,,,,,,num_7,0.434803399985,2019_May_07_1043,59.9101587184,click_exp,001,171820009,
19,pic/7.png,aaa,['num_7'],,,,,,,,,,,,,0,20,20,20,,,,,,,,num_7,0.401228200004,2019_May_07_1043,59.9101587184,click_exp,001,171820009,
20,pic/5.png,aaa,['num_5'],,,,,,,,,,,,,0,21,21,21,,,,,,,,num_5,0.517960800003,2019_May_07_1043,59.9101587184,click_exp,001,171820009,
21,pic/5.png,aaa,['num_5'],,,,,,,,,,,,,0,22,22,22,,,,,,,,num_5,0.417818099988,2019_May_07_1043,59.9101587184,click_exp,001,171820009,
22,pic/5.png,aaa,['num_5'],,,,,,,,,,,,,0,23,23,23,,,,,,,,num_5,0.467907300015,2019_May_07_1043,59.9101587184,click_exp,001,171820009,
-1,pic/8.png,huan,['num_8'],,,,,,,,,,,,,0,24,24,24,,,,,,,,num_8,0.701457599993,2019_May_07_1043,59.9101587184,click_exp,001,171820009,
-1,pic/9.png,huan,['num_9'],,,,,,,,,,,,,0,25,25,25,,,,,,,,num_9,0.601355299994,2019_May_07_1043,59.9101587184,click_exp,001,171820009,
23,pic/1.png,abb,['num_1'],,,,,,,,,,,,,0,26,26,26,,,,,,,,num_1,0.550688799995,2019_May_07_1043,59.9101587184,click_exp,001,171820009,
24,pic/9.png,abb,['num_9'],,,,,,,,,,,,,0,27,27,27,,,,,,,,num_9,0.634727199998,2019_May_07_1043,59.9101587184,click_exp,001,171820009,
25,pic/9.png,abb,['num_9'],,,,,,,,,,,,,0,28,28,28,,,,,,,,num_9,0.618451099988,2019_May_07_1043,59.9101587184,click_exp,001,171820009,
26,pic/7.png,abb,['num_7'],,,,,,,,,,,,,0,29,29,29,,,,,,,,num_7,0.568042600004,2019_May_07_1043,59.9101587184,click_exp,001,171820009,
27,pic/9.png,abb,['num_9'],,,,,,,,,,,,,0,30,30,30,,,,,,,,num_9,0.51797310001,2019_May_07_1043,59.9101587184,click_exp,001,171820009,
28,pic/9.png,abb,['num_9'],,,,,,,,,,,,,0,31,31,31,,,,,,,,num_9,0.434496400005,2019_May_07_1043,59.9101587184,click_exp,001,171820009,
29,pic/6.png,abb,['num_6'],,,,,,,,,,,,,0,32,32,32,,,,,,,,num_6,0.618071399978,2019_May_07_1043,59.9101587184,click_exp,001,171820009,
30,pic/4.png,abb,['num_4'],,,,,,,,,,,,,0,33,33,33,,,,,,,,num_4,0.451398999983,2019_May_07_1043,59.9101587184,click_exp,001,171820009,
31,pic/4.png,abb,['num_4'],,,,,,,,,,,,,0,34,34,34,,,,,,,,num_4,0.38490840001,2019_May_07_1043,59.9101587184,click_exp,001,171820009,
32,pic/4.png,abb,['num_4'],,,,,,,,,,,,,0,35,35,35,,,,,,,,num_4,0.367937000003,2019_May_07_1043,59.9101587184,click_exp,001,171820009,
33,pic/7.png,abb,['num_7'],,,,,,,,,,,,,0,36,36,36,,,,,,,,num_7,0.534557900013,2019_May_07_1043,59.9101587184,click_exp,001,171820009,
34,pic/7.png,abb,['num_7'],,,,,,,,,,,,,0,37,37,37,,,,,,,,num_7,0.43452889999,2019_May_07_1043,59.9101587184,click_exp,001,171820009,
35,pic/4.png,abb,['num_4'],,,,,,,,,,,,,0,38,38,38,,,,,,,,num_4,0.718089100003,2019_May_07_1043,59.9101587184,click_exp,001,171820009,
36,pic/3.png,abb,['num_3'],,,,,,,,,,,,,0,39,39,39,,,,,,,,num_3,0.7351241,2019_May_07_1043,59.9101587184,click_exp,001,171820009,
37,pic/3.png,abb,['num_3'],,,,,,,,,,,,,0,40,40,40,,,,,,,,num_3,0.551040999999,2019_May_07_1043,59.9101587184,click_exp,001,171820009,
38,pic/7.png,abb,['num_7'],,,,,,,,,,,,,0,41,41,41,,,,,,,,num_7,0.567839099996,2019_May_07_1043,59.9101587184,click_exp,001,171820009,
39,pic/1.png,abb,['num_1'],,,,,,,,,,,,,0,42,42,42,,,,,,,,num_1,0.701558500004,2019_May_07_1043,59.9101587184,click_exp,001,171820009,
40,pic/1.png,abb,['num_1'],,,,,,,,,,,,,0,43,43,43,,,,,,,,num_1,0.501316799986,2019_May_07_1043,59.9101587184,click_exp,001,171820009,
41,pic/6.png,abb,['num_6'],,,,,,,,,,,,,0,44,44,44,,,,,,,,num_6,0.617981799995,2019_May_07_1043,59.9101587184,click_exp,001,171820009,
42,pic/2.png,abb,['num_2'],,,,,,,,,,,,,0,45,45,45,,,,,,,,num_2,0.634569199989,2019_May_07_1043,59.9101587184,click_exp,001,171820009,
43,pic/2.png,abb,['num_2'],,,,,,,,,,,,,0,46,46,46,,,,,,,,num_2,0.668193899997,2019_May_07_1043,59.9101587184,click_exp,001,171820009,
44,pic/3.png,abb,['num_3'],,,,,,,,,,,,,0,47,47,47,,,,,,,,num_3,0.618040000001,2019_May_07_1043,59.9101587184,click_exp,001,171820009,
45,pic/7.png,abb,['num_7'],,,,,,,,,,,,,0,48,48,48,,,,,,,,num_7,0.651534000004,2019_May_07_1043,59.9101587184,click_exp,001,171820009,
46,pic/7.png,abb,['num_7'],,,,,,,,,,,,,0,49,49,49,,,,,,,,num_7,0.551342700026,2019_May_07_1043,59.9101587184,click_exp,001,171820009,
-1,pic/9.png,huan,['num_9'],,,,,,,,,,,,,0,50,50,50,,,,,,,,num_9,0.684875400009,2019_May_07_1043,59.9101587184,click_exp,001,171820009,
-1,pic/1.png,huan,['num_1'],,,,,,,,,,,,,0,51,51,51,,,,,,,,num_1,0.601361600013,2019_May_07_1043,59.9101587184,click_exp,001,171820009,
47,pic/2.png,wh,['num_2'],,,,,,,,,,,,,0,52,52,52,,,,,,,,num_2,0.634774700011,2019_May_07_1043,59.9101587184,click_exp,001,171820009,
48,pic/5.png,wh,['num_5'],,,,,,,,,,,,,0,53,53,53,,,,,,,,num_5,1.051859,2019_May_07_1043,59.9101587184,click_exp,001,171820009,
49,pic/8.png,wh,['num_8'],,,,,,,,,,,,,0,54,54,54,,,,,,,,num_8,0.668066100014,2019_May_07_1043,59.9101587184,click_exp,001,171820009,
50,pic/1.png,wh,['num_1'],,,,,,,,,,,,,0,55,55,55,,,,,,,,num_1,0.584730599978,2019_May_07_1043,59.9101587184,click_exp,001,171820009,
51,pic/4.png,wh,['num_4'],,,,,,,,,,,,,0,56,56,56,,,,,,,,num_4,0.601387500006,2019_May_07_1043,59.9101587184,click_exp,001,171820009,
52,pic/7.png,wh,['num_7'],,,,,,,,,,,,,0,57,57,57,,,,,,,,num_7,0.718108000001,2019_May_07_1043,59.9101587184,click_exp,001,171820009,
53,pic/1.png,wh,['num_1'],,,,,,,,,,,,,0,58,58,58,,,,,,,,num_1,0.634638799995,2019_May_07_1043,59.9101587184,click_exp,001,171820009,
54,pic/4.png,wh,['num_4'],,,,,,,,,,,,,0,59,59,59,,,,,,,,num_4,0.551319699996,2019_May_07_1043,59.9101587184,click_exp,001,171820009,
55,pic/7.png,wh,['num_7'],,,,,,,,,,,,,0,60,60,60,,,,,,,,num_7,0.7189297,2019_May_07_1043,59.9101587184,click_exp,001,171820009,
56,pic/2.png,wh,['num_2'],,,,,,,,,,,,,0,61,61,61,,,,,,,,num_2,0.901465999981,2019_May_07_1043,59.9101587184,click_exp,001,171820009,
57,pic/5.png,wh,['num_5'],,,,,,,,,,,,,0,62,62,62,,,,,,,,num_5,0.668197299994,2019_May_07_1043,59.9101587184,click_exp,001,171820009,
58,pic/8.png,wh,['num_8'],,,,,,,,,,,,,0,63,63,63,,,,,,,,num_8,0.701443500002,2019_May_07_1043,59.9101587184,click_exp,001,171820009,
59,pic/9.png,cross,['num_9'],,,,,,,,,,,,,0,64,64,64,,,,,,,,num_9,0.734993899998,2019_May_07_1043,59.9101587184,click_exp,001,171820009,
60,pic/5.png,cross,['num_5'],,,,,,,,,,,,,0,65,65,65,,,,,,,,num_5,0.551783400006,2019_May_07_1043,59.9101587184,click_exp,001,171820009,
61,pic/1.png,cross,['num_1'],,,,,,,,,,,,,0,66,66,66,,,,,,,,num_1,0.534747199999,2019_May_07_1043,59.9101587184,click_exp,001,171820009,
62,pic/7.png,cross,['num_7'],,,,,,,,,,,,,0,67,67,67,,,,,,,,num_7,0.651489000011,2019_May_07_1043,59.9101587184,click_exp,001,171820009,
63,pic/5.png,cross,['num_5'],,,,,,,,,,,,,0,68,68,68,,,,,,,,num_5,0.501162100001,2019_May_07_1043,59.9101587184,click_exp,001,171820009,
64,pic/3.png,cross,['num_3'],,,,,,,,,,,,,0,69,69,69,,,,,,,,num_3,0.651415600005,2019_May_07_1043,59.9101587184,click_exp,001,171820009,
65,pic/7.png,cross,['num_7'],,,,,,,,,,,,,0,70,70,70,,,,,,,,num_7,0.668191600009,2019_May_07_1043,59.9101587184,click_exp,001,171820009,
66,pic/5.png,cross,['num_5'],,,,,,,,,,,,,0,71,71,71,,,,,,,,num_5,0.451461299992,2019_May_07_1043,59.9101587184,click_exp,001,171820009,
67,pic/3.png,cross,['num_3'],,,,,,,,,,,,,0,72,72,72,,,,,,,,num_3,0.601297200017,2019_May_07_1043,59.9101587184,click_exp,001,171820009,
68,pic/9.png,cross,['num_9'],,,,,,,,,,,,,0,73,73,73,,,,,,,,num_9,0.7515212,2019_May_07_1043,59.9101587184,click_exp,001,171820009,
69,pic/5.png,cross,['num_5'],,,,,,,,,,,,,0,74,74,74,,,,,,,,num_5,0.434530700004,2019_May_07_1043,59.9101587184,click_exp,001,171820009,
70,pic/1.png,cross,['num_1'],,,,,,,,,,,,,0,75,75,75,,,,,,,,num_1,0.551288099989,2019_May_07_1043,59.9101587184,click_exp,001,171820009,
-1,pic/9.png,huan,['num_9'],,,,,,,,,,,,,0,76,76,76,,,,,,,,num_9,0.651316100004,2019_May_07_1043,59.9101587184,click_exp,001,171820009,
-1,pic/8.png,huan,['num_8'],,,,,,,,,,,,,0,77,77,77,,,,,,,,num_8,0.58465070001,2019_May_07_1043,59.9101587184,click_exp,001,171820009,
71,pic/7.png,abc3,['num_7'],,,,,,,,,,,,,0,78,78,78,,,,,,,,num_7,0.66810900002,2019_May_07_1043,59.9101587184,click_exp,001,171820009,
72,pic/1.png,abc3,['num_1'],,,,,,,,,,,,,0,79,79,79,,,,,,,,num_1,0.6180742,2019_May_07_1043,59.9101587184,click_exp,001,171820009,
73,pic/5.png,abc3,['num_5'],,,,,,,,,,,,,0,80,80,80,,,,,,,,num_5,0.468047600007,2019_May_07_1043,59.9101587184,click_exp,001,171820009,
74,pic/7.png,abc3,['num_7'],,,,,,,,,,,,,0,81,81,81,,,,,,,,num_7,0.651499,2019_May_07_1043,59.9101587184,click_exp,001,171820009,
75,pic/1.png,abc3,['num_1'],,,,,,,,,,,,,0,82,82,82,,,,,,,,num_1,0.634747999982,2019_May_07_1043,59.9101587184,click_exp,001,171820009,
76,pic/5.png,abc3,['num_5'],,,,,,,,,,,,,0,83,83,83,,,,,,,,num_5,0.451036700018,2019_May_07_1043,59.9101587184,click_exp,001,171820009,
77,pic/7.png,abc3,['num_7'],,,,,,,,,,,,,0,84,84,84,,,,,,,,num_7,0.651371799991,2019_May_07_1043,59.9101587184,click_exp,001,171820009,
78,pic/1.png,abc3,['num_1'],,,,,,,,,,,,,0,85,85,85,,,,,,,,num_1,0.601026499993,2019_May_07_1043,59.9101587184,click_exp,001,171820009,
79,pic/5.png,abc3,['num_5'],,,,,,,,,,,,,0,86,86,86,,,,,,,,num_5,0.434531400009,2019_May_07_1043,59.9101587184,click_exp,001,171820009,
80,pic/9.png,abc3,['num_9'],,,,,,,,,,,,,0,87,87,87,,,,,,,,num_9,0.434428599983,2019_May_07_1043,59.9101587184,click_exp,001,171820009,
81,pic/6.png,abc3,['num_6'],,,,,,,,,,,,,0,88,88,88,,,,,,,,num_6,0.668109899998,2019_May_07_1043,59.9101587184,click_exp,001,171820009,
82,pic/2.png,abc3,['num_2'],,,,,,,,,,,,,0,89,89,89,,,,,,,,num_2,0.701483399986,2019_May_07_1043,59.9101587184,click_exp,001,171820009,
83,pic/9.png,abc3,['num_9'],,,,,,,,,,,,,0,90,90,90,,,,,,,,num_9,0.734840299992,2019_May_07_1043,59.9101587184,click_exp,001,171820009,
84,pic/6.png,abc3,['num_6'],,,,,,,,,,,,,0,91,91,91,,,,,,,,num_6,0.569020499999,2019_May_07_1043,59.9101587184,click_exp,001,171820009,
85,pic/2.png,abc3,['num_2'],,,,,,,,,,,,,0,92,92,92,,,,,,,,num_2,0.668118600006,2019_May_07_1043,59.9101587184,click_exp,001,171820009,
86,pic/9.png,abc3,['num_9'],,,,,,,,,,,,,0,93,93,93,,,,,,,,num_9,0.651338399999,2019_May_07_1043,59.9101587184,click_exp,001,171820009,
87,pic/6.png,abc3,['num_6'],,,,,,,,,,,,,0,94,94,94,,,,,,,,num_6,0.568000600004,2019_May_07_1043,59.9101587184,click_exp,001,171820009,
88,pic/2.png,abc3,['num_2'],,,,,,,,,,,,,0,95,95,95,,,,,,,,num_2,0.601368400006,2019_May_07_1043,59.9101587184,click_exp,001,171820009,
89,pic/3.png,abc3,['num_3'],,,,,,,,,,,,,0,96,96,96,,,,,,,,num_3,0.668000400008,2019_May_07_1043,59.9101587184,click_exp,001,171820009,
90,pic/2.png,abc3,['num_2'],,,,,,,,,,,,,0,97,97,97,,,,,,,,num_2,0.718094899989,2019_May_07_1043,59.9101587184,click_exp,001,171820009,
91,pic/8.png,abc3,['num_8'],,,,,,,,,,,,,0,98,98,98,,,,,,,,num_8,0.668470400007,2019_May_07_1043,59.9101587184,click_exp,001,171820009,
92,pic/3.png,abc3,['num_3'],,,,,,,,,,,,,0,99,99,99,,,,,,,,num_3,0.634677000024,2019_May_07_1043,59.9101587184,click_exp,001,171820009,
93,pic/2.png,abc3,['num_2'],,,,,,,,,,,,,0,100,100,100,,,,,,,,num_2,0.601451199997,2019_May_07_1043,59.9101587184,click_exp,001,171820009,
94,pic/8.png,abc3,['num_8'],,,,,,,,,,,,,0,101,101,101,,,,,,,,num_8,0.501458500017,2019_May_07_1043,59.9101587184,click_exp,001,171820009,
95,pic/3.png,abc3,['num_3'],,,,,,,,,,,,,0,102,102,102,,,,,,,,num_3,0.534580899985,2019_May_07_1043,59.9101587184,click_exp,001,171820009,
96,pic/2.png,abc3,['num_2'],,,,,,,,,,,,,0,103,103,103,,,,,,,,num_2,0.584936200001,2019_May_07_1043,59.9101587184,click_exp,001,171820009,
97,pic/8.png,abc3,['num_8'],,,,,,,,,,,,,0,104,104,104,,,,,,,,num_8,0.534673099988,2019_May_07_1043,59.9101587184,click_exp,001,171820009,
