no,pic,cla,ans,trials_prac.thisRepN,trials_prac.thisTrialN,trials_prac.thisN,trials_prac.thisIndex,trials_huan.thisRepN,trials_huan.thisTrialN,trials_huan.thisN,trials_huan.thisIndex,trials_baseline.thisRepN,trials_baseline.thisTrialN,trials_baseline.thisN,trials_baseline.thisIndex,trials_formal.thisRepN,trials_formal.thisTrialN,trials_formal.thisN,trials_formal.thisIndex,key_resp_2.keys,key_resp_2.corr,key_resp_2.rt,key_resp_huan.keys,key_resp_huan.rt,key_resp_base.keys,key_resp_base.rt,key_resp_for.keys,key_resp_for.rt,date,frameRate,expName,session,participant,
16,pic/7.png,baseline,['num_7'],,,,,,,,,0,0,0,15,,,,,num_7,0,0.51874259999,num_2,0.602015400014,num_7,0.523315500002,,,2019_May_07_1846,59.9723527408,click_exp,001,181230040,
23,pic/5.png,baseline,['num_5'],,,,,,,,,0,1,1,22,,,,,,,,,,num_5,0.503338200011,,,2019_May_07_1846,59.9723527408,click_exp,001,181230040,
1,pic/1.png,baseline,['num_1'],,,,,,,,,0,2,2,0,,,,,,,,,,num_1,0.554233800009,,,2019_May_07_1846,59.9723527408,click_exp,001,181230040,
8,pic/8.png,baseline,['num_8'],,,,,,,,,0,3,3,7,,,,,,,,,,num_8,0.502941599989,,,2019_May_07_1846,59.9723527408,click_exp,001,181230040,
22,pic/4.png,baseline,['num_4'],,,,,,,,,0,4,4,21,,,,,,,,,,num_4,0.519079699996,,,2019_May_07_1846,59.9723527408,click_exp,001,181230040,
18,pic/9.png,baseline,['num_9'],,,,,,,,,0,5,5,17,,,,,,,,,,num_9,0.435299300007,,,2019_May_07_1846,59.9723527408,click_exp,001,181230040,
24,pic/6.png,baseline,['num_6'],,,,,,,,,0,6,6,23,,,,,,,,,,num_6,0.419098399987,,,2019_May_07_1846,59.9723527408,click_exp,001,181230040,
4,pic/4.png,baseline,['num_4'],,,,,,,,,0,7,7,3,,,,,,,,,,num_4,0.686710800015,,,2019_May_07_1846,59.9723527408,click_exp,001,181230040,
7,pic/7.png,baseline,['num_7'],,,,,,,,,0,8,8,6,,,,,,,,,,num_7,0.585572799988,,,2019_May_07_1846,59.9723527408,click_exp,001,181230040,
17,pic/8.png,baseline,['num_8'],,,,,,,,,0,9,9,16,,,,,,,,,,num_8,0.566822799999,,,2019_May_07_1846,59.9723527408,click_exp,001,181230040,
5,pic/5.png,baseline,['num_5'],,,,,,,,,0,10,10,4,,,,,,,,,,num_5,0.503237700003,,,2019_May_07_1846,59.9723527408,click_exp,001,181230040,
19,pic/1.png,baseline,['num_1'],,,,,,,,,0,11,11,18,,,,,,,,,,num_1,0.618858599977,,,2019_May_07_1846,59.9723527408,click_exp,001,181230040,
9,pic/9.png,baseline,['num_9'],,,,,,,,,0,12,12,8,,,,,,,,,,num_9,0.62117649999,,,2019_May_07_1846,59.9723527408,click_exp,001,181230040,
14,pic/5.png,baseline,['num_5'],,,,,,,,,0,13,13,13,,,,,,,,,,num_5,0.4355316,,,2019_May_07_1846,59.9723527408,click_exp,001,181230040,
12,pic/3.png,baseline,['num_3'],,,,,,,,,0,14,14,11,,,,,,,,,,num_3,0.553079900012,,,2019_May_07_1846,59.9723527408,click_exp,001,181230040,
27,pic/9.png,baseline,['num_9'],,,,,,,,,0,15,15,26,,,,,,,,,,num_9,0.553006399976,,,2019_May_07_1846,59.9723527408,click_exp,001,181230040,
25,pic/7.png,baseline,['num_7'],,,,,,,,,0,16,16,24,,,,,,,,,,num_7,0.620081000001,,,2019_May_07_1846,59.9723527408,click_exp,001,181230040,
11,pic/2.png,baseline,['num_2'],,,,,,,,,0,17,17,10,,,,,,,,,,num_2,0.569292100001,,,2019_May_07_1846,59.9723527408,click_exp,001,181230040,
15,pic/6.png,baseline,['num_6'],,,,,,,,,0,18,18,14,,,,,,,,,,num_6,0.485530300008,,,2019_May_07_1846,59.9723527408,click_exp,001,181230040,
10,pic/1.png,baseline,['num_1'],,,,,,,,,0,19,19,9,,,,,,,,,,num_1,0.586436499987,,,2019_May_07_1846,59.9723527408,click_exp,001,181230040,
2,pic/2.png,baseline,['num_2'],,,,,,,,,0,20,20,1,,,,,,,,,,num_2,0.585963300022,,,2019_May_07_1846,59.9723527408,click_exp,001,181230040,
20,pic/2.png,baseline,['num_2'],,,,,,,,,0,21,21,19,,,,,,,,,,num_2,0.619642200007,,,2019_May_07_1846,59.9723527408,click_exp,001,181230040,
21,pic/3.png,baseline,['num_3'],,,,,,,,,0,22,22,20,,,,,,,,,,num_3,0.535911299987,,,2019_May_07_1846,59.9723527408,click_exp,001,181230040,
3,pic/3.png,baseline,['num_3'],,,,,,,,,0,23,23,2,,,,,,,,,,num_3,0.619088999985,,,2019_May_07_1846,59.9723527408,click_exp,001,181230040,
6,pic/6.png,baseline,['num_6'],,,,,,,,,0,24,24,5,,,,,,,,,,num_6,0.586253299989,,,2019_May_07_1846,59.9723527408,click_exp,001,181230040,
26,pic/8.png,baseline,['num_8'],,,,,,,,,0,25,25,25,,,,,,,,,,num_8,0.518218900019,,,2019_May_07_1846,59.9723527408,click_exp,001,181230040,
13,pic/4.png,baseline,['num_4'],,,,,,,,,0,26,26,12,,,,,,,,,,num_4,0.435147400014,,,2019_May_07_1846,59.9723527408,click_exp,001,181230040,
1,pic/6.png,aa,['num_6'],,,,,,,,,,,,,0,0,0,0,,,,,,,,num_6,0.491937299987,2019_May_07_1846,59.9723527408,click_exp,001,181230040,
2,pic/6.png,aa,['num_6'],,,,,,,,,,,,,0,1,1,1,,,,,,,,num_6,0.502084200009,2019_May_07_1846,59.9723527408,click_exp,001,181230040,
3,pic/8.png,aa,['num_8'],,,,,,,,,,,,,0,2,2,2,,,,,,,,num_8,0.651554099983,2019_May_07_1846,59.9723527408,click_exp,001,181230040,
4,pic/8.png,aa,['num_8'],,,,,,,,,,,,,0,3,3,3,,,,,,,,num_8,0.546606299991,2019_May_07_1846,59.9723527408,click_exp,001,181230040,
5,pic/4.png,aa,['num_4'],,,,,,,,,,,,,0,4,4,4,,,,,,,,num_4,0.485408799985,2019_May_07_1846,59.9723527408,click_exp,001,181230040,
6,pic/4.png,aa,['num_4'],,,,,,,,,,,,,0,5,5,5,,,,,,,,num_4,0.518834899995,2019_May_07_1846,59.9723527408,click_exp,001,181230040,
7,pic/3.png,aa,['num_3'],,,,,,,,,,,,,0,6,6,6,,,,,,,,num_3,0.669196100003,2019_May_07_1846,59.9723527408,click_exp,001,181230040,
8,pic/3.png,aa,['num_3'],,,,,,,,,,,,,0,7,7,7,,,,,,,,num_3,0.63712639999,2019_May_07_1846,59.9723527408,click_exp,001,181230040,
9,pic/9.png,aa,['num_9'],,,,,,,,,,,,,0,8,8,8,,,,,,,,num_9,0.553119899996,2019_May_07_1846,59.9723527408,click_exp,001,181230040,
10,pic/9.png,aa,['num_9'],,,,,,,,,,,,,0,9,9,9,,,,,,,,num_9,0.520141199988,2019_May_07_1846,59.9723527408,click_exp,001,181230040,
-1,pic/3.png,huan,['num_3'],,,,,,,,,,,,,0,10,10,10,,,,,,,,num_3,0.569872699998,2019_May_07_1846,59.9723527408,click_exp,001,181230040,
-1,pic/9.png,huan,['num_9'],,,,,,,,,,,,,0,11,11,11,,,,,,,,num_9,0.535538299999,2019_May_07_1846,59.9723527408,click_exp,001,181230040,
11,pic/6.png,aaa,['num_6'],,,,,,,,,,,,,0,12,12,12,,,,,,,,num_6,0.585459099995,2019_May_07_1846,59.9723527408,click_exp,001,181230040,
12,pic/6.png,aaa,['num_6'],,,,,,,,,,,,,0,13,13,13,,,,,,,,num_6,0.549842899985,2019_May_07_1846,59.9723527408,click_exp,001,181230040,
13,pic/6.png,aaa,['num_6'],,,,,,,,,,,,,0,14,14,14,,,,,,,,num_6,0.419553299987,2019_May_07_1846,59.9723527408,click_exp,001,181230040,
14,pic/5.png,aaa,['num_5'],,,,,,,,,,,,,0,15,15,15,,,,,,,,num_5,0.602480800007,2019_May_07_1846,59.9723527408,click_exp,001,181230040,
15,pic/5.png,aaa,['num_5'],,,,,,,,,,,,,0,16,16,16,,,,,,,,num_5,0.434682599996,2019_May_07_1846,59.9723527408,click_exp,001,181230040,
16,pic/5.png,aaa,['num_5'],,,,,,,,,,,,,0,17,17,17,,,,,,,,num_5,0.4023781,2019_May_07_1846,59.9723527408,click_exp,001,181230040,
17,pic/8.png,aaa,['num_8'],,,,,,,,,,,,,0,18,18,18,,,,,,,,num_8,0.519072199997,2019_May_07_1846,59.9723527408,click_exp,001,181230040,
18,pic/8.png,aaa,['num_8'],,,,,,,,,,,,,0,19,19,19,,,,,,,,num_8,0.469072699983,2019_May_07_1846,59.9723527408,click_exp,001,181230040,
19,pic/8.png,aaa,['num_8'],,,,,,,,,,,,,0,20,20,20,,,,,,,,num_8,0.486192799988,2019_May_07_1846,59.9723527408,click_exp,001,181230040,
20,pic/7.png,aaa,['num_7'],,,,,,,,,,,,,0,21,21,21,,,,,,,,num_7,0.554851099994,2019_May_07_1846,59.9723527408,click_exp,001,181230040,
21,pic/7.png,aaa,['num_7'],,,,,,,,,,,,,0,22,22,22,,,,,,,,num_7,0.369640500023,2019_May_07_1846,59.9723527408,click_exp,001,181230040,
22,pic/7.png,aaa,['num_7'],,,,,,,,,,,,,0,23,23,23,,,,,,,,num_7,0.40268129998,2019_May_07_1846,59.9723527408,click_exp,001,181230040,
-1,pic/6.png,huan,['num_6'],,,,,,,,,,,,,0,24,24,24,,,,,,,,num_6,0.5190344,2019_May_07_1846,59.9723527408,click_exp,001,181230040,
-1,pic/3.png,huan,['num_3'],,,,,,,,,,,,,0,25,25,25,,,,,,,,num_3,0.752778900001,2019_May_07_1846,59.9723527408,click_exp,001,181230040,
23,pic/3.png,abb,['num_3'],,,,,,,,,,,,,0,26,26,26,,,,,,,,num_3,0.552675899991,2019_May_07_1846,59.9723527408,click_exp,001,181230040,
24,pic/2.png,abb,['num_2'],,,,,,,,,,,,,0,27,27,27,,,,,,,,num_2,0.703222499986,2019_May_07_1846,59.9723527408,click_exp,001,181230040,
25,pic/2.png,abb,['num_2'],,,,,,,,,,,,,0,28,28,28,,,,,,,,num_2,0.453317100008,2019_May_07_1846,59.9723527408,click_exp,001,181230040,
26,pic/6.png,abb,['num_6'],,,,,,,,,,,,,0,29,29,29,,,,,,,,num_6,0.535074499989,2019_May_07_1846,59.9723527408,click_exp,001,181230040,
27,pic/5.png,abb,['num_5'],,,,,,,,,,,,,0,30,30,30,,,,,,,,num_5,0.518518700002,2019_May_07_1846,59.9723527408,click_exp,001,181230040,
28,pic/5.png,abb,['num_5'],,,,,,,,,,,,,0,31,31,31,,,,,,,,num_5,0.436937899998,2019_May_07_1846,59.9723527408,click_exp,001,181230040,
29,pic/4.png,abb,['num_4'],,,,,,,,,,,,,0,32,32,32,,,,,,,,num_4,0.436491,2019_May_07_1846,59.9723527408,click_exp,001,181230040,
30,pic/8.png,abb,['num_8'],,,,,,,,,,,,,0,33,33,33,,,,,,,,num_8,0.684624099988,2019_May_07_1846,59.9723527408,click_exp,001,181230040,
31,pic/8.png,abb,['num_8'],,,,,,,,,,,,,0,34,34,34,,,,,,,,num_8,0.536697600008,2019_May_07_1846,59.9723527408,click_exp,001,181230040,
32,pic/6.png,abb,['num_6'],,,,,,,,,,,,,0,35,35,35,,,,,,,,num_6,0.971095899993,2019_May_07_1846,59.9723527408,click_exp,001,181230040,
33,pic/7.png,abb,['num_7'],,,,,,,,,,,,,0,36,36,36,,,,,,,,num_7,0.736924800003,2019_May_07_1846,59.9723527408,click_exp,001,181230040,
34,pic/7.png,abb,['num_7'],,,,,,,,,,,,,0,37,37,37,,,,,,,,num_7,0.503220299986,2019_May_07_1846,59.9723527408,click_exp,001,181230040,
35,pic/7.png,abb,['num_7'],,,,,,,,,,,,,0,38,38,38,,,,,,,,num_7,0.451363400003,2019_May_07_1846,59.9723527408,click_exp,001,181230040,
36,pic/4.png,abb,['num_4'],,,,,,,,,,,,,0,39,39,39,,,,,,,,num_4,0.536175699992,2019_May_07_1846,59.9723527408,click_exp,001,181230040,
37,pic/4.png,abb,['num_4'],,,,,,,,,,,,,0,40,40,40,,,,,,,,num_4,0.419888500008,2019_May_07_1846,59.9723527408,click_exp,001,181230040,
38,pic/1.png,abb,['num_1'],,,,,,,,,,,,,0,41,41,41,,,,,,,,num_1,0.552651899983,2019_May_07_1846,59.9723527408,click_exp,001,181230040,
39,pic/8.png,abb,['num_8'],,,,,,,,,,,,,0,42,42,42,,,,,,,,num_8,0.502408500004,2019_May_07_1846,59.9723527408,click_exp,001,181230040,
40,pic/8.png,abb,['num_8'],,,,,,,,,,,,,0,43,43,43,,,,,,,,num_8,0.453194100002,2019_May_07_1846,59.9723527408,click_exp,001,181230040,
41,pic/9.png,abb,['num_9'],,,,,,,,,,,,,0,44,44,44,,,,,,,,num_9,0.585028500005,2019_May_07_1846,59.9723527408,click_exp,001,181230040,
42,pic/3.png,abb,['num_3'],,,,,,,,,,,,,0,45,45,45,,,,,,,,num_3,0.636191700003,2019_May_07_1846,59.9723527408,click_exp,001,181230040,
43,pic/3.png,abb,['num_3'],,,,,,,,,,,,,0,46,46,46,,,,,,,,num_3,0.502373199997,2019_May_07_1846,59.9723527408,click_exp,001,181230040,
44,pic/3.png,abb,['num_3'],,,,,,,,,,,,,0,47,47,47,,,,,,,,num_3,0.471319500008,2019_May_07_1846,59.9723527408,click_exp,001,181230040,
45,pic/4.png,abb,['num_4'],,,,,,,,,,,,,0,48,48,48,,,,,,,,num_4,0.552451200027,2019_May_07_1846,59.9723527408,click_exp,001,181230040,
46,pic/4.png,abb,['num_4'],,,,,,,,,,,,,0,49,49,49,,,,,,,,num_4,0.452100000024,2019_May_07_1846,59.9723527408,click_exp,001,181230040,
-1,pic/3.png,huan,['num_3'],,,,,,,,,,,,,0,50,50,50,,,,,,,,num_3,0.618431100011,2019_May_07_1846,59.9723527408,click_exp,001,181230040,
-1,pic/5.png,huan,['num_5'],,,,,,,,,,,,,0,51,51,51,,,,,,,,num_5,0.451703500003,2019_May_07_1846,59.9723527408,click_exp,001,181230040,
47,pic/4.png,wh,['num_4'],,,,,,,,,,,,,0,52,52,52,,,,,,,,num_4,0.435328000021,2019_May_07_1846,59.9723527408,click_exp,001,181230040,
48,pic/5.png,wh,['num_5'],,,,,,,,,,,,,0,53,53,53,,,,,,,,num_5,0.468763100012,2019_May_07_1846,59.9723527408,click_exp,001,181230040,
49,pic/6.png,wh,['num_6'],,,,,,,,,,,,,0,54,54,54,,,,,,,,num_6,0.419972400006,2019_May_07_1846,59.9723527408,click_exp,001,181230040,
50,pic/7.png,wh,['num_7'],,,,,,,,,,,,,0,55,55,55,,,,,,,,num_7,0.620560200012,2019_May_07_1846,59.9723527408,click_exp,001,181230040,
51,pic/8.png,wh,['num_8'],,,,,,,,,,,,,0,56,56,56,,,,,,,,num_8,0.552576999995,2019_May_07_1846,59.9723527408,click_exp,001,181230040,
52,pic/9.png,wh,['num_9'],,,,,,,,,,,,,0,57,57,57,,,,,,,,num_9,0.455658399995,2019_May_07_1846,59.9723527408,click_exp,001,181230040,
53,pic/4.png,wh,['num_4'],,,,,,,,,,,,,0,58,58,58,,,,,,,,num_4,0.419851300016,2019_May_07_1846,59.9723527408,click_exp,001,181230040,
54,pic/5.png,wh,['num_5'],,,,,,,,,,,,,0,59,59,59,,,,,,,,num_5,0.403221999994,2019_May_07_1846,59.9723527408,click_exp,001,181230040,
55,pic/6.png,wh,['num_6'],,,,,,,,,,,,,0,60,60,60,,,,,,,,num_6,0.369606699998,2019_May_07_1846,59.9723527408,click_exp,001,181230040,
56,pic/7.png,wh,['num_7'],,,,,,,,,,,,,0,61,61,61,,,,,,,,num_7,0.702149599994,2019_May_07_1846,59.9723527408,click_exp,001,181230040,
57,pic/8.png,wh,['num_8'],,,,,,,,,,,,,0,62,62,62,,,,,,,,num_8,0.435027700005,2019_May_07_1846,59.9723527408,click_exp,001,181230040,
58,pic/9.png,wh,['num_9'],,,,,,,,,,,,,0,63,63,63,,,,,,,,num_9,0.386045799998,2019_May_07_1846,59.9723527408,click_exp,001,181230040,
59,pic/7.png,cross,['num_7'],,,,,,,,,,,,,0,64,64,64,,,,,,,,num_7,0.569499000005,2019_May_07_1846,59.9723527408,click_exp,001,181230040,
60,pic/5.png,cross,['num_5'],,,,,,,,,,,,,0,65,65,65,,,,,,,,num_5,0.569661799993,2019_May_07_1846,59.9723527408,click_exp,001,181230040,
61,pic/3.png,cross,['num_3'],,,,,,,,,,,,,0,66,66,66,,,,,,,,num_3,0.635863800009,2019_May_07_1846,59.9723527408,click_exp,001,181230040,
62,pic/7.png,cross,['num_7'],,,,,,,,,,,,,0,67,67,67,,,,,,,,num_7,0.602207000018,2019_May_07_1846,59.9723527408,click_exp,001,181230040,
63,pic/5.png,cross,['num_5'],,,,,,,,,,,,,0,68,68,68,,,,,,,,num_5,0.384783799993,2019_May_07_1846,59.9723527408,click_exp,001,181230040,
64,pic/3.png,cross,['num_3'],,,,,,,,,,,,,0,69,69,69,,,,,,,,num_3,0.400871999998,2019_May_07_1846,59.9723527408,click_exp,001,181230040,
65,pic/1.png,cross,['num_1'],,,,,,,,,,,,,0,70,70,70,,,,,,,,num_1,1.33660330001,2019_May_07_1846,59.9723527408,click_exp,001,181230040,
66,pic/5.png,cross,['num_5'],,,,,,,,,,,,,0,71,71,71,,,,,,,,num_5,0.402401400002,2019_May_07_1846,59.9723527408,click_exp,001,181230040,
67,pic/9.png,cross,['num_9'],,,,,,,,,,,,,0,72,72,72,,,,,,,,num_9,0.402626900002,2019_May_07_1846,59.9723527408,click_exp,001,181230040,
68,pic/3.png,cross,['num_3'],,,,,,,,,,,,,0,73,73,73,,,,,,,,num_3,0.703206800012,2019_May_07_1846,59.9723527408,click_exp,001,181230040,
69,pic/5.png,cross,['num_5'],,,,,,,,,,,,,0,74,74,74,,,,,,,,num_5,0.552189400012,2019_May_07_1846,59.9723527408,click_exp,001,181230040,
70,pic/7.png,cross,['num_7'],,,,,,,,,,,,,0,75,75,75,,,,,,,,num_7,0.339918600017,2019_May_07_1846,59.9723527408,click_exp,001,181230040,
-1,pic/1.png,huan,['num_1'],,,,,,,,,,,,,0,76,76,76,,,,,,,,num_1,0.469116099994,2019_May_07_1846,59.9723527408,click_exp,001,181230040,
-1,pic/4.png,huan,['num_4'],,,,,,,,,,,,,0,77,77,77,,,,,,,,num_4,0.752399099991,2019_May_07_1846,59.9723527408,click_exp,001,181230040,
71,pic/1.png,abc3,['num_1'],,,,,,,,,,,,,0,78,78,78,,,,,,,,num_1,0.636247899994,2019_May_07_1846,59.9723527408,click_exp,001,181230040,
72,pic/2.png,abc3,['num_2'],,,,,,,,,,,,,0,79,79,79,,,,,,,,num_2,0.68698649999,2019_May_07_1846,59.9723527408,click_exp,001,181230040,
73,pic/4.png,abc3,['num_4'],,,,,,,,,,,,,0,80,80,80,,,,,,,,num_4,0.585830199998,2019_May_07_1846,59.9723527408,click_exp,001,181230040,
74,pic/1.png,abc3,['num_1'],,,,,,,,,,,,,0,81,81,81,,,,,,,,num_1,0.652428600006,2019_May_07_1846,59.9723527408,click_exp,001,181230040,
75,pic/2.png,abc3,['num_2'],,,,,,,,,,,,,0,82,82,82,,,,,,,,num_2,0.552844799997,2019_May_07_1846,59.9723527408,click_exp,001,181230040,
76,pic/4.png,abc3,['num_4'],,,,,,,,,,,,,0,83,83,83,,,,,,,,num_4,0.452333599998,2019_May_07_1846,59.9723527408,click_exp,001,181230040,
77,pic/1.png,abc3,['num_1'],,,,,,,,,,,,,0,84,84,84,,,,,,,,num_1,0.586157699989,2019_May_07_1846,59.9723527408,click_exp,001,181230040,
78,pic/2.png,abc3,['num_2'],,,,,,,,,,,,,0,85,85,85,,,,,,,,num_2,0.502575300023,2019_May_07_1846,59.9723527408,click_exp,001,181230040,
79,pic/4.png,abc3,['num_4'],,,,,,,,,,,,,0,86,86,86,,,,,,,,num_4,0.418879400007,2019_May_07_1846,59.9723527408,click_exp,001,181230040,
80,pic/8.png,abc3,['num_8'],,,,,,,,,,,,,0,87,87,87,,,,,,,,num_8,0.602765299991,2019_May_07_1846,59.9723527408,click_exp,001,181230040,
81,pic/1.png,abc3,['num_1'],,,,,,,,,,,,,0,88,88,88,,,,,,,,num_1,0.537288799998,2019_May_07_1846,59.9723527408,click_exp,001,181230040,
82,pic/9.png,abc3,['num_9'],,,,,,,,,,,,,0,89,89,89,,,,,,,,num_9,0.702899099997,2019_May_07_1846,59.9723527408,click_exp,001,181230040,
83,pic/8.png,abc3,['num_8'],,,,,,,,,,,,,0,90,90,90,,,,,,,,num_8,0.536337500002,2019_May_07_1846,59.9723527408,click_exp,001,181230040,
84,pic/1.png,abc3,['num_1'],,,,,,,,,,,,,0,91,91,91,,,,,,,,num_1,0.686727199994,2019_May_07_1846,59.9723527408,click_exp,001,181230040,
85,pic/9.png,abc3,['num_9'],,,,,,,,,,,,,0,92,92,92,,,,,,,,num_9,0.618928899989,2019_May_07_1846,59.9723527408,click_exp,001,181230040,
86,pic/8.png,abc3,['num_8'],,,,,,,,,,,,,0,93,93,93,,,,,,,,num_8,0.517830800003,2019_May_07_1846,59.9723527408,click_exp,001,181230040,
87,pic/1.png,abc3,['num_1'],,,,,,,,,,,,,0,94,94,94,,,,,,,,num_1,0.6199127,2019_May_07_1846,59.9723527408,click_exp,001,181230040,
88,pic/9.png,abc3,['num_9'],,,,,,,,,,,,,0,95,95,95,,,,,,,,num_9,0.551713399997,2019_May_07_1846,59.9723527408,click_exp,001,181230040,
89,pic/4.png,abc3,['num_4'],,,,,,,,,,,,,0,96,96,96,,,,,,,,num_4,0.519439299998,2019_May_07_1846,59.9723527408,click_exp,001,181230040,
90,pic/3.png,abc3,['num_3'],,,,,,,,,,,,,0,97,97,97,,,,,,,,num_3,0.604214099993,2019_May_07_1846,59.9723527408,click_exp,001,181230040,
91,pic/7.png,abc3,['num_7'],,,,,,,,,,,,,0,98,98,98,,,,,,,,num_7,0.5698041,2019_May_07_1846,59.9723527408,click_exp,001,181230040,
92,pic/4.png,abc3,['num_4'],,,,,,,,,,,,,0,99,99,99,,,,,,,,num_4,0.518930199993,2019_May_07_1846,59.9723527408,click_exp,001,181230040,
93,pic/3.png,abc3,['num_3'],,,,,,,,,,,,,0,100,100,100,,,,,,,,num_3,0.569421699998,2019_May_07_1846,59.9723527408,click_exp,001,181230040,
94,pic/7.png,abc3,['num_7'],,,,,,,,,,,,,0,101,101,101,,,,,,,,num_7,0.585463599971,2019_May_07_1846,59.9723527408,click_exp,001,181230040,
95,pic/4.png,abc3,['num_4'],,,,,,,,,,,,,0,102,102,102,,,,,,,,num_4,0.435935799993,2019_May_07_1846,59.9723527408,click_exp,001,181230040,
96,pic/3.png,abc3,['num_3'],,,,,,,,,,,,,0,103,103,103,,,,,,,,num_3,0.55248849999,2019_May_07_1846,59.9723527408,click_exp,001,181230040,
97,pic/7.png,abc3,['num_7'],,,,,,,,,,,,,0,104,104,104,,,,,,,,num_7,0.751864300022,2019_May_07_1846,59.9723527408,click_exp,001,181230040,
