no,pic,cla,ans,trials_prac.thisRepN,trials_prac.thisTrialN,trials_prac.thisN,trials_prac.thisIndex,trials_huan.thisRepN,trials_huan.thisTrialN,trials_huan.thisN,trials_huan.thisIndex,trials_baseline.thisRepN,trials_baseline.thisTrialN,trials_baseline.thisN,trials_baseline.thisIndex,trials_formal.thisRepN,trials_formal.thisTrialN,trials_formal.thisN,trials_formal.thisIndex,key_resp_2.keys,key_resp_2.corr,key_resp_2.rt,key_resp_huan.keys,key_resp_huan.rt,key_resp_base.keys,key_resp_base.rt,key_resp_for.keys,key_resp_for.rt,date,frameRate,expName,session,participant,
15,pic/6.png,baseline,['num_6'],,,,,,,,,0,0,0,14,,,,,num_4,0,0.752324000001,num_9,0.737043899979,num_6,0.739177999989,,,2019_May_08_1048,59.732053953,click_exp,001,mf1633014,
5,pic/5.png,baseline,['num_5'],,,,,,,,,0,1,1,4,,,,,,,,,,num_5,0.601163100015,,,2019_May_08_1048,59.732053953,click_exp,001,mf1633014,
18,pic/9.png,baseline,['num_9'],,,,,,,,,0,2,2,17,,,,,,,,,,num_9,0.720265600015,,,2019_May_08_1048,59.732053953,click_exp,001,mf1633014,
6,pic/6.png,baseline,['num_6'],,,,,,,,,0,3,3,5,,,,,,,,,,num_6,0.603215500014,,,2019_May_08_1048,59.732053953,click_exp,001,mf1633014,
25,pic/7.png,baseline,['num_7'],,,,,,,,,0,4,4,24,,,,,,,,,,num_7,0.636691800028,,,2019_May_08_1048,59.732053953,click_exp,001,mf1633014,
4,pic/4.png,baseline,['num_4'],,,,,,,,,0,5,5,3,,,,,,,,,,num_4,0.453787699982,,,2019_May_08_1048,59.732053953,click_exp,001,mf1633014,
13,pic/4.png,baseline,['num_4'],,,,,,,,,0,6,6,12,,,,,,,,,,num_4,0.569761599996,,,2019_May_08_1048,59.732053953,click_exp,001,mf1633014,
10,pic/1.png,baseline,['num_1'],,,,,,,,,0,7,7,9,,,,,,,,,,num_1,0.61888959998,,,2019_May_08_1048,59.732053953,click_exp,001,mf1633014,
2,pic/2.png,baseline,['num_2'],,,,,,,,,0,8,8,1,,,,,,,,,,num_2,0.669592399994,,,2019_May_08_1048,59.732053953,click_exp,001,mf1633014,
3,pic/3.png,baseline,['num_3'],,,,,,,,,0,9,9,2,,,,,,,,,,num_3,0.854764299991,,,2019_May_08_1048,59.732053953,click_exp,001,mf1633014,
21,pic/3.png,baseline,['num_3'],,,,,,,,,0,10,10,20,,,,,,,,,,num_3,0.736571700021,,,2019_May_08_1048,59.732053953,click_exp,001,mf1633014,
11,pic/2.png,baseline,['num_2'],,,,,,,,,0,11,11,10,,,,,,,,,,num_2,0.920144400006,,,2019_May_08_1048,59.732053953,click_exp,001,mf1633014,
23,pic/5.png,baseline,['num_5'],,,,,,,,,0,12,12,22,,,,,,,,,,num_5,0.636324999999,,,2019_May_08_1048,59.732053953,click_exp,001,mf1633014,
12,pic/3.png,baseline,['num_3'],,,,,,,,,0,13,13,11,,,,,,,,,,num_3,0.970168599975,,,2019_May_08_1048,59.732053953,click_exp,001,mf1633014,
26,pic/8.png,baseline,['num_8'],,,,,,,,,0,14,14,25,,,,,,,,,,num_8,0.770043299999,,,2019_May_08_1048,59.732053953,click_exp,001,mf1633014,
19,pic/1.png,baseline,['num_1'],,,,,,,,,0,15,15,18,,,,,,,,,,num_1,0.753793599986,,,2019_May_08_1048,59.732053953,click_exp,001,mf1633014,
20,pic/2.png,baseline,['num_2'],,,,,,,,,0,16,16,19,,,,,,,,,,num_2,0.720628499985,,,2019_May_08_1048,59.732053953,click_exp,001,mf1633014,
16,pic/7.png,baseline,['num_7'],,,,,,,,,0,17,17,15,,,,,,,,,,num_7,0.719912500004,,,2019_May_08_1048,59.732053953,click_exp,001,mf1633014,
24,pic/6.png,baseline,['num_6'],,,,,,,,,0,18,18,23,,,,,,,,,,num_6,0.820307000016,,,2019_May_08_1048,59.732053953,click_exp,001,mf1633014,
8,pic/8.png,baseline,['num_8'],,,,,,,,,0,19,19,7,,,,,,,,,,num_8,0.670340400015,,,2019_May_08_1048,59.732053953,click_exp,001,mf1633014,
1,pic/1.png,baseline,['num_1'],,,,,,,,,0,20,20,0,,,,,,,,,,num_1,0.736104300013,,,2019_May_08_1048,59.732053953,click_exp,001,mf1633014,
9,pic/9.png,baseline,['num_9'],,,,,,,,,0,21,21,8,,,,,,,,,,num_9,0.735631200019,,,2019_May_08_1048,59.732053953,click_exp,001,mf1633014,
14,pic/5.png,baseline,['num_5'],,,,,,,,,0,22,22,13,,,,,,,,,,num_5,0.669963599998,,,2019_May_08_1048,59.732053953,click_exp,001,mf1633014,
7,pic/7.png,baseline,['num_7'],,,,,,,,,0,23,23,6,,,,,,,,,,num_7,0.618508099986,,,2019_May_08_1048,59.732053953,click_exp,001,mf1633014,
22,pic/4.png,baseline,['num_4'],,,,,,,,,0,24,24,21,,,,,,,,,,num_4,0.553128300002,,,2019_May_08_1048,59.732053953,click_exp,001,mf1633014,
27,pic/9.png,baseline,['num_9'],,,,,,,,,0,25,25,26,,,,,,,,,,num_9,0.803808199998,,,2019_May_08_1048,59.732053953,click_exp,001,mf1633014,
17,pic/8.png,baseline,['num_8'],,,,,,,,,0,26,26,16,,,,,,,,,,num_8,0.703836400004,,,2019_May_08_1048,59.732053953,click_exp,001,mf1633014,
1,pic/2.png,aa,['num_2'],,,,,,,,,,,,,0,0,0,0,,,,,,,,num_2,0.667412399984,2019_May_08_1048,59.732053953,click_exp,001,mf1633014,
2,pic/2.png,aa,['num_2'],,,,,,,,,,,,,0,1,1,1,,,,,,,,num_2,0.718700500001,2019_May_08_1048,59.732053953,click_exp,001,mf1633014,
3,pic/7.png,aa,['num_7'],,,,,,,,,,,,,0,2,2,2,,,,,,,,num_7,0.66985440001,2019_May_08_1048,59.732053953,click_exp,001,mf1633014,
4,pic/7.png,aa,['num_7'],,,,,,,,,,,,,0,3,3,3,,,,,,,,num_7,0.703983399988,2019_May_08_1048,59.732053953,click_exp,001,mf1633014,
5,pic/9.png,aa,['num_9'],,,,,,,,,,,,,0,4,4,4,,,,,,,,num_9,0.85422779998,2019_May_08_1048,59.732053953,click_exp,001,mf1633014,
6,pic/9.png,aa,['num_9'],,,,,,,,,,,,,0,5,5,5,,,,,,,,num_9,0.721138500026,2019_May_08_1048,59.732053953,click_exp,001,mf1633014,
7,pic/6.png,aa,['num_6'],,,,,,,,,,,,,0,6,6,6,,,,,,,,num_6,0.620277899987,2019_May_08_1048,59.732053953,click_exp,001,mf1633014,
8,pic/6.png,aa,['num_6'],,,,,,,,,,,,,0,7,7,7,,,,,,,,num_6,0.60264160001,2019_May_08_1048,59.732053953,click_exp,001,mf1633014,
9,pic/4.png,aa,['num_4'],,,,,,,,,,,,,0,8,8,8,,,,,,,,num_4,0.602420700016,2019_May_08_1048,59.732053953,click_exp,001,mf1633014,
10,pic/4.png,aa,['num_4'],,,,,,,,,,,,,0,9,9,9,,,,,,,,num_4,0.469894799986,2019_May_08_1048,59.732053953,click_exp,001,mf1633014,
-1,pic/5.png,huan,['num_5'],,,,,,,,,,,,,0,10,10,10,,,,,,,,num_5,0.519781999988,2019_May_08_1048,59.732053953,click_exp,001,mf1633014,
-1,pic/3.png,huan,['num_3'],,,,,,,,,,,,,0,11,11,11,,,,,,,,num_3,0.83606609999,2019_May_08_1048,59.732053953,click_exp,001,mf1633014,
11,pic/7.png,aaa,['num_7'],,,,,,,,,,,,,0,12,12,12,,,,,,,,num_7,0.686026899988,2019_May_08_1048,59.732053953,click_exp,001,mf1633014,
12,pic/7.png,aaa,['num_7'],,,,,,,,,,,,,0,13,13,13,,,,,,,,num_7,0.603179700003,2019_May_08_1048,59.732053953,click_exp,001,mf1633014,
13,pic/7.png,aaa,['num_7'],,,,,,,,,,,,,0,14,14,14,,,,,,,,num_7,0.635627700016,2019_May_08_1048,59.732053953,click_exp,001,mf1633014,
14,pic/3.png,aaa,['num_3'],,,,,,,,,,,,,0,15,15,15,,,,,,,,num_3,0.837178699992,2019_May_08_1048,59.732053953,click_exp,001,mf1633014,
15,pic/3.png,aaa,['num_3'],,,,,,,,,,,,,0,16,16,16,,,,,,,,num_3,0.686618799984,2019_May_08_1048,59.732053953,click_exp,001,mf1633014,
16,pic/3.png,aaa,['num_3'],,,,,,,,,,,,,0,17,17,17,,,,,,,,num_3,0.652231999993,2019_May_08_1048,59.732053953,click_exp,001,mf1633014,
17,pic/1.png,aaa,['num_1'],,,,,,,,,,,,,0,18,18,18,,,,,,,,num_1,0.685146600008,2019_May_08_1048,59.732053953,click_exp,001,mf1633014,
18,pic/1.png,aaa,['num_1'],,,,,,,,,,,,,0,19,19,19,,,,,,,,num_1,0.51866229999,2019_May_08_1048,59.732053953,click_exp,001,mf1633014,
19,pic/1.png,aaa,['num_1'],,,,,,,,,,,,,0,20,20,20,,,,,,,,num_1,0.503584199992,2019_May_08_1048,59.732053953,click_exp,001,mf1633014,
20,pic/4.png,aaa,['num_4'],,,,,,,,,,,,,0,21,21,21,,,,,,,,num_4,0.569153500022,2019_May_08_1048,59.732053953,click_exp,001,mf1633014,
21,pic/4.png,aaa,['num_4'],,,,,,,,,,,,,0,22,22,22,,,,,,,,num_4,0.53563649999,2019_May_08_1048,59.732053953,click_exp,001,mf1633014,
22,pic/4.png,aaa,['num_4'],,,,,,,,,,,,,0,23,23,23,,,,,,,,num_4,0.619520600012,2019_May_08_1048,59.732053953,click_exp,001,mf1633014,
-1,pic/4.png,huan,['num_4'],,,,,,,,,,,,,0,24,24,24,,,,,,,,num_4,0.955516199989,2019_May_08_1048,59.732053953,click_exp,001,mf1633014,
-1,pic/5.png,huan,['num_5'],,,,,,,,,,,,,0,25,25,25,,,,,,,,num_5,0.885813900008,2019_May_08_1048,59.732053953,click_exp,001,mf1633014,
23,pic/8.png,abb,['num_8'],,,,,,,,,,,,,0,26,26,26,,,,,,,,num_8,0.8022069,2019_May_08_1048,59.732053953,click_exp,001,mf1633014,
24,pic/2.png,abb,['num_2'],,,,,,,,,,,,,0,27,27,27,,,,,,,,num_2,0.853291800013,2019_May_08_1048,59.732053953,click_exp,001,mf1633014,
25,pic/2.png,abb,['num_2'],,,,,,,,,,,,,0,28,28,28,,,,,,,,num_2,0.687089300016,2019_May_08_1048,59.732053953,click_exp,001,mf1633014,
26,pic/1.png,abb,['num_1'],,,,,,,,,,,,,0,29,29,29,,,,,,,,num_1,0.652858699992,2019_May_08_1048,59.732053953,click_exp,001,mf1633014,
27,pic/3.png,abb,['num_3'],,,,,,,,,,,,,0,30,30,30,,,,,,,,num_3,0.904410399991,2019_May_08_1048,59.732053953,click_exp,001,mf1633014,
28,pic/3.png,abb,['num_3'],,,,,,,,,,,,,0,31,31,31,,,,,,,,num_3,0.669961100008,2019_May_08_1048,59.732053953,click_exp,001,mf1633014,
29,pic/6.png,abb,['num_6'],,,,,,,,,,,,,0,32,32,32,,,,,,,,num_6,1.08718239999,2019_May_08_1048,59.732053953,click_exp,001,mf1633014,
30,pic/8.png,abb,['num_8'],,,,,,,,,,,,,0,33,33,33,,,,,,,,num_8,0.720492099994,2019_May_08_1048,59.732053953,click_exp,001,mf1633014,
31,pic/8.png,abb,['num_8'],,,,,,,,,,,,,0,34,34,34,,,,,,,,num_8,0.486274900002,2019_May_08_1048,59.732053953,click_exp,001,mf1633014,
32,pic/1.png,abb,['num_1'],,,,,,,,,,,,,0,35,35,35,,,,,,,,num_1,0.903700400027,2019_May_08_1048,59.732053953,click_exp,001,mf1633014,
33,pic/5.png,abb,['num_5'],,,,,,,,,,,,,0,36,36,36,,,,,,,,num_5,0.785751099989,2019_May_08_1048,59.732053953,click_exp,001,mf1633014,
34,pic/5.png,abb,['num_5'],,,,,,,,,,,,,0,37,37,37,,,,,,,,num_5,0.585560900014,2019_May_08_1048,59.732053953,click_exp,001,mf1633014,
35,pic/8.png,abb,['num_8'],,,,,,,,,,,,,0,38,38,38,,,,,,,,num_8,0.587626699999,2019_May_08_1048,59.732053953,click_exp,001,mf1633014,
36,pic/4.png,abb,['num_4'],,,,,,,,,,,,,0,39,39,39,,,,,,,,num_4,0.685611299996,2019_May_08_1048,59.732053953,click_exp,001,mf1633014,
37,pic/4.png,abb,['num_4'],,,,,,,,,,,,,0,40,40,40,,,,,,,,num_4,0.519299499982,2019_May_08_1048,59.732053953,click_exp,001,mf1633014,
38,pic/4.png,abb,['num_4'],,,,,,,,,,,,,0,41,41,41,,,,,,,,num_4,0.503382999974,2019_May_08_1048,59.732053953,click_exp,001,mf1633014,
39,pic/8.png,abb,['num_8'],,,,,,,,,,,,,0,42,42,42,,,,,,,,num_8,0.853818500007,2019_May_08_1048,59.732053953,click_exp,001,mf1633014,
40,pic/8.png,abb,['num_8'],,,,,,,,,,,,,0,43,43,43,,,,,,,,num_8,0.652384399989,2019_May_08_1048,59.732053953,click_exp,001,mf1633014,
41,pic/9.png,abb,['num_9'],,,,,,,,,,,,,0,44,44,44,,,,,,,,num_9,1.07059339999,2019_May_08_1048,59.732053953,click_exp,001,mf1633014,
42,pic/5.png,abb,['num_5'],,,,,,,,,,,,,0,45,45,45,,,,,,,,num_5,0.886727400008,2019_May_08_1048,59.732053953,click_exp,001,mf1633014,
43,pic/5.png,abb,['num_5'],,,,,,,,,,,,,0,46,46,46,,,,,,,,num_5,0.569013100001,2019_May_08_1048,59.732053953,click_exp,001,mf1633014,
44,pic/9.png,abb,['num_9'],,,,,,,,,,,,,0,47,47,47,,,,,,,,num_9,0.919900100009,2019_May_08_1048,59.732053953,click_exp,001,mf1633014,
45,pic/6.png,abb,['num_6'],,,,,,,,,,,,,0,48,48,48,,,,,,,,num_6,0.802785800013,2019_May_08_1048,59.732053953,click_exp,001,mf1633014,
46,pic/6.png,abb,['num_6'],,,,,,,,,,,,,0,49,49,49,,,,,,,,num_6,0.485491999978,2019_May_08_1048,59.732053953,click_exp,001,mf1633014,
-1,pic/9.png,huan,['num_9'],,,,,,,,,,,,,0,50,50,50,,,,,,,,num_9,0.970888100012,2019_May_08_1048,59.732053953,click_exp,001,mf1633014,
-1,pic/7.png,huan,['num_7'],,,,,,,,,,,,,0,51,51,51,,,,,,,,num_7,0.971633900015,2019_May_08_1048,59.732053953,click_exp,001,mf1633014,
47,pic/3.png,wh,['num_3'],,,,,,,,,,,,,0,52,52,52,,,,,,,,num_3,0.987008900003,2019_May_08_1048,59.732053953,click_exp,001,mf1633014,
48,pic/6.png,wh,['num_6'],,,,,,,,,,,,,0,53,53,53,,,,,,,,num_6,0.820145599981,2019_May_08_1048,59.732053953,click_exp,001,mf1633014,
49,pic/9.png,wh,['num_9'],,,,,,,,,,,,,0,54,54,54,,,,,,,,num_9,0.786505700002,2019_May_08_1048,59.732053953,click_exp,001,mf1633014,
50,pic/7.png,wh,['num_7'],,,,,,,,,,,,,0,55,55,55,,,,,,,,num_7,0.7667984,2019_May_08_1048,59.732053953,click_exp,001,mf1633014,
51,pic/8.png,wh,['num_8'],,,,,,,,,,,,,0,56,56,56,,,,,,,,num_8,0.988012300018,2019_May_08_1048,59.732053953,click_exp,001,mf1633014,
52,pic/9.png,wh,['num_9'],,,,,,,,,,,,,0,57,57,57,,,,,,,,num_9,0.904475200019,2019_May_08_1048,59.732053953,click_exp,001,mf1633014,
53,pic/3.png,wh,['num_3'],,,,,,,,,,,,,0,58,58,58,,,,,,,,num_3,0.871134900022,2019_May_08_1048,59.732053953,click_exp,001,mf1633014,
54,pic/6.png,wh,['num_6'],,,,,,,,,,,,,0,59,59,59,,,,,,,,num_6,0.937237200007,2019_May_08_1048,59.732053953,click_exp,001,mf1633014,
55,pic/9.png,wh,['num_9'],,,,,,,,,,,,,0,60,60,60,,,,,,,,num_9,0.819827700005,2019_May_08_1048,59.732053953,click_exp,001,mf1633014,
56,pic/7.png,wh,['num_7'],,,,,,,,,,,,,0,61,61,61,,,,,,,,num_7,0.804608400009,2019_May_08_1048,59.732053953,click_exp,001,mf1633014,
57,pic/8.png,wh,['num_8'],,,,,,,,,,,,,0,62,62,62,,,,,,,,num_8,0.803326899972,2019_May_08_1048,59.732053953,click_exp,001,mf1633014,
58,pic/9.png,wh,['num_9'],,,,,,,,,,,,,0,63,63,63,,,,,,,,num_9,0.653132100007,2019_May_08_1048,59.732053953,click_exp,001,mf1633014,
59,pic/7.png,cross,['num_7'],,,,,,,,,,,,,0,64,64,64,,,,,,,,num_7,0.801662600017,2019_May_08_1048,59.732053953,click_exp,001,mf1633014,
60,pic/5.png,cross,['num_5'],,,,,,,,,,,,,0,65,65,65,,,,,,,,num_5,0.785621200019,2019_May_08_1048,59.732053953,click_exp,001,mf1633014,
61,pic/3.png,cross,['num_3'],,,,,,,,,,,,,0,66,66,66,,,,,,,,num_3,0.803594800003,2019_May_08_1048,59.732053953,click_exp,001,mf1633014,
62,pic/7.png,cross,['num_7'],,,,,,,,,,,,,0,67,67,67,,,,,,,,num_7,0.719387799996,2019_May_08_1048,59.732053953,click_exp,001,mf1633014,
63,pic/5.png,cross,['num_5'],,,,,,,,,,,,,0,68,68,68,,,,,,,,num_5,0.719889099972,2019_May_08_1048,59.732053953,click_exp,001,mf1633014,
64,pic/3.png,cross,['num_3'],,,,,,,,,,,,,0,69,69,69,,,,,,,,num_3,1.08775950002,2019_May_08_1048,59.732053953,click_exp,001,mf1633014,
65,pic/1.png,cross,['num_1'],,,,,,,,,,,,,0,70,70,70,,,,,,,,num_1,0.732749199989,2019_May_08_1048,59.732053953,click_exp,001,mf1633014,
66,pic/5.png,cross,['num_5'],,,,,,,,,,,,,0,71,71,71,,,,,,,,num_5,0.603828499996,2019_May_08_1048,59.732053953,click_exp,001,mf1633014,
67,pic/9.png,cross,['num_9'],,,,,,,,,,,,,0,72,72,72,,,,,,,,num_9,0.903336599993,2019_May_08_1048,59.732053953,click_exp,001,mf1633014,
68,pic/7.png,cross,['num_7'],,,,,,,,,,,,,0,73,73,73,,,,,,,,num_7,0.735793,2019_May_08_1048,59.732053953,click_exp,001,mf1633014,
69,pic/5.png,cross,['num_5'],,,,,,,,,,,,,0,74,74,74,,,,,,,,num_5,0.502141400008,2019_May_08_1048,59.732053953,click_exp,001,mf1633014,
70,pic/3.png,cross,['num_3'],,,,,,,,,,,,,0,75,75,75,,,,,,,,num_3,0.836195799988,2019_May_08_1048,59.732053953,click_exp,001,mf1633014,
-1,pic/5.png,huan,['num_5'],,,,,,,,,,,,,0,76,76,76,,,,,,,,num_5,0.570220599999,2019_May_08_1048,59.732053953,click_exp,001,mf1633014,
-1,pic/4.png,huan,['num_4'],,,,,,,,,,,,,0,77,77,77,,,,,,,,num_4,0.5198256,2019_May_08_1048,59.732053953,click_exp,001,mf1633014,
71,pic/7.png,abc3,['num_7'],,,,,,,,,,,,,0,78,78,78,,,,,,,,num_7,0.686847100005,2019_May_08_1048,59.732053953,click_exp,001,mf1633014,
72,pic/3.png,abc3,['num_3'],,,,,,,,,,,,,0,79,79,79,,,,,,,,num_3,0.969503800006,2019_May_08_1048,59.732053953,click_exp,001,mf1633014,
73,pic/4.png,abc3,['num_4'],,,,,,,,,,,,,0,80,80,80,,,,,,,,num_4,0.60435400001,2019_May_08_1048,59.732053953,click_exp,001,mf1633014,
74,pic/7.png,abc3,['num_7'],,,,,,,,,,,,,0,81,81,81,,,,,,,,num_7,0.787196099991,2019_May_08_1048,59.732053953,click_exp,001,mf1633014,
75,pic/3.png,abc3,['num_3'],,,,,,,,,,,,,0,82,82,82,,,,,,,,num_3,1.10415679999,2019_May_08_1048,59.732053953,click_exp,001,mf1633014,
76,pic/4.png,abc3,['num_4'],,,,,,,,,,,,,0,83,83,83,,,,,,,,num_4,0.737239999988,2019_May_08_1048,59.732053953,click_exp,001,mf1633014,
77,pic/7.png,abc3,['num_7'],,,,,,,,,,,,,0,84,84,84,,,,,,,,num_7,0.803409099986,2019_May_08_1048,59.732053953,click_exp,001,mf1633014,
78,pic/3.png,abc3,['num_3'],,,,,,,,,,,,,0,85,85,85,,,,,,,,num_3,0.836574800021,2019_May_08_1048,59.732053953,click_exp,001,mf1633014,
79,pic/4.png,abc3,['num_4'],,,,,,,,,,,,,0,86,86,86,,,,,,,,num_4,0.536373899988,2019_May_08_1048,59.732053953,click_exp,001,mf1633014,
80,pic/7.png,abc3,['num_7'],,,,,,,,,,,,,0,87,87,87,,,,,,,,num_7,0.702461299981,2019_May_08_1048,59.732053953,click_exp,001,mf1633014,
81,pic/9.png,abc3,['num_9'],,,,,,,,,,,,,0,88,88,88,,,,,,,,num_9,0.903384499979,2019_May_08_1048,59.732053953,click_exp,001,mf1633014,
82,pic/8.png,abc3,['num_8'],,,,,,,,,,,,,0,89,89,89,,,,,,,,num_8,0.602118600014,2019_May_08_1048,59.732053953,click_exp,001,mf1633014,
83,pic/7.png,abc3,['num_7'],,,,,,,,,,,,,0,90,90,90,,,,,,,,num_7,0.652029599994,2019_May_08_1048,59.732053953,click_exp,001,mf1633014,
84,pic/9.png,abc3,['num_9'],,,,,,,,,,,,,0,91,91,91,,,,,,,,num_9,0.886578900012,2019_May_08_1048,59.732053953,click_exp,001,mf1633014,
85,pic/8.png,abc3,['num_8'],,,,,,,,,,,,,0,92,92,92,,,,,,,,num_8,0.802383700007,2019_May_08_1048,59.732053953,click_exp,001,mf1633014,
86,pic/7.png,abc3,['num_7'],,,,,,,,,,,,,0,93,93,93,,,,,,,,num_7,0.70277470001,2019_May_08_1048,59.732053953,click_exp,001,mf1633014,
87,pic/9.png,abc3,['num_9'],,,,,,,,,,,,,0,94,94,94,,,,,,,,num_9,0.886223699985,2019_May_08_1048,59.732053953,click_exp,001,mf1633014,
88,pic/8.png,abc3,['num_8'],,,,,,,,,,,,,0,95,95,95,,,,,,,,num_8,0.651931600005,2019_May_08_1048,59.732053953,click_exp,001,mf1633014,
89,pic/4.png,abc3,['num_4'],,,,,,,,,,,,,0,96,96,96,,,,,,,,num_4,0.653024400002,2019_May_08_1048,59.732053953,click_exp,001,mf1633014,
90,pic/3.png,abc3,['num_3'],,,,,,,,,,,,,0,97,97,97,,,,,,,,num_3,1.2209135,2019_May_08_1048,59.732053953,click_exp,001,mf1633014,
91,pic/1.png,abc3,['num_1'],,,,,,,,,,,,,0,98,98,98,,,,,,,,num_1,0.786042799999,2019_May_08_1048,59.732053953,click_exp,001,mf1633014,
92,pic/4.png,abc3,['num_4'],,,,,,,,,,,,,0,99,99,99,,,,,,,,num_4,0.588182399981,2019_May_08_1048,59.732053953,click_exp,001,mf1633014,
93,pic/3.png,abc3,['num_3'],,,,,,,,,,,,,0,100,100,100,,,,,,,,num_3,1.20389539999,2019_May_08_1048,59.732053953,click_exp,001,mf1633014,
94,pic/1.png,abc3,['num_1'],,,,,,,,,,,,,0,101,101,101,,,,,,,,num_1,0.736313000001,2019_May_08_1048,59.732053953,click_exp,001,mf1633014,
95,pic/4.png,abc3,['num_4'],,,,,,,,,,,,,0,102,102,102,,,,,,,,num_4,0.802922500006,2019_May_08_1048,59.732053953,click_exp,001,mf1633014,
96,pic/3.png,abc3,['num_3'],,,,,,,,,,,,,0,103,103,103,,,,,,,,num_3,0.986916299997,2019_May_08_1048,59.732053953,click_exp,001,mf1633014,
97,pic/1.png,abc3,['num_1'],,,,,,,,,,,,,0,104,104,104,,,,,,,,num_1,0.819960100023,2019_May_08_1048,59.732053953,click_exp,001,mf1633014,
