no,pic,cla,ans,trials_prac.thisRepN,trials_prac.thisTrialN,trials_prac.thisN,trials_prac.thisIndex,trials_huan.thisRepN,trials_huan.thisTrialN,trials_huan.thisN,trials_huan.thisIndex,trials_baseline.thisRepN,trials_baseline.thisTrialN,trials_baseline.thisN,trials_baseline.thisIndex,trials_formal.thisRepN,trials_formal.thisTrialN,trials_formal.thisN,trials_formal.thisIndex,key_resp_2.keys,key_resp_2.corr,key_resp_2.rt,key_resp_huan.keys,key_resp_huan.rt,key_resp_base.keys,key_resp_base.rt,key_resp_for.keys,key_resp_for.rt,date,frameRate,expName,session,participant,
8,pic/8.png,baseline,['num_8'],,,,,,,,,0,0,0,7,,,,,num_6,0,0.41906070002,num_9,0.501931099978,num_8,0.471258400008,,,2019_May_08_0950,59.7888020319,click_exp,001,mf1733024,
20,pic/2.png,baseline,['num_2'],,,,,,,,,0,1,1,19,,,,,,,,,,num_2,0.536423299985,,,2019_May_08_0950,59.7888020319,click_exp,001,mf1733024,
19,pic/1.png,baseline,['num_1'],,,,,,,,,0,2,2,18,,,,,,,,,,num_1,0.519503499992,,,2019_May_08_0950,59.7888020319,click_exp,001,mf1733024,
21,pic/3.png,baseline,['num_3'],,,,,,,,,0,3,3,20,,,,,,,,,,num_3,0.469857100019,,,2019_May_08_0950,59.7888020319,click_exp,001,mf1733024,
22,pic/4.png,baseline,['num_4'],,,,,,,,,0,4,4,21,,,,,,,,,,num_4,0.386842800013,,,2019_May_08_0950,59.7888020319,click_exp,001,mf1733024,
26,pic/8.png,baseline,['num_8'],,,,,,,,,0,5,5,25,,,,,,,,,,num_8,0.485683300009,,,2019_May_08_0950,59.7888020319,click_exp,001,mf1733024,
18,pic/9.png,baseline,['num_9'],,,,,,,,,0,6,6,17,,,,,,,,,,num_9,0.485858600005,,,2019_May_08_0950,59.7888020319,click_exp,001,mf1733024,
7,pic/7.png,baseline,['num_7'],,,,,,,,,0,7,7,6,,,,,,,,,,num_7,0.452913199988,,,2019_May_08_0950,59.7888020319,click_exp,001,mf1733024,
12,pic/3.png,baseline,['num_3'],,,,,,,,,0,8,8,11,,,,,,,,,,num_3,0.436344599992,,,2019_May_08_0950,59.7888020319,click_exp,001,mf1733024,
3,pic/3.png,baseline,['num_3'],,,,,,,,,0,9,9,2,,,,,,,,,,num_3,0.536191400024,,,2019_May_08_0950,59.7888020319,click_exp,001,mf1733024,
5,pic/5.png,baseline,['num_5'],,,,,,,,,0,10,10,4,,,,,,,,,,num_5,0.402968899987,,,2019_May_08_0950,59.7888020319,click_exp,001,mf1733024,
24,pic/6.png,baseline,['num_6'],,,,,,,,,0,11,11,23,,,,,,,,,,num_6,0.502303200017,,,2019_May_08_0950,59.7888020319,click_exp,001,mf1733024,
27,pic/9.png,baseline,['num_9'],,,,,,,,,0,12,12,26,,,,,,,,,,num_9,0.485986299987,,,2019_May_08_0950,59.7888020319,click_exp,001,mf1733024,
9,pic/9.png,baseline,['num_9'],,,,,,,,,0,13,13,8,,,,,,,,,,num_9,0.535911299987,,,2019_May_08_0950,59.7888020319,click_exp,001,mf1733024,
6,pic/6.png,baseline,['num_6'],,,,,,,,,0,14,14,5,,,,,,,,,,num_6,0.536256799998,,,2019_May_08_0950,59.7888020319,click_exp,001,mf1733024,
15,pic/6.png,baseline,['num_6'],,,,,,,,,0,15,15,14,,,,,,,,,,num_6,0.518979900022,,,2019_May_08_0950,59.7888020319,click_exp,001,mf1733024,
23,pic/5.png,baseline,['num_5'],,,,,,,,,0,16,16,22,,,,,,,,,,num_5,0.468884900009,,,2019_May_08_0950,59.7888020319,click_exp,001,mf1733024,
2,pic/2.png,baseline,['num_2'],,,,,,,,,0,17,17,1,,,,,,,,,,num_2,0.602932500013,,,2019_May_08_0950,59.7888020319,click_exp,001,mf1733024,
10,pic/1.png,baseline,['num_1'],,,,,,,,,0,18,18,9,,,,,,,,,,num_1,0.702592699992,,,2019_May_08_0950,59.7888020319,click_exp,001,mf1733024,
25,pic/7.png,baseline,['num_7'],,,,,,,,,0,19,19,24,,,,,,,,,,num_7,0.554350199993,,,2019_May_08_0950,59.7888020319,click_exp,001,mf1733024,
16,pic/7.png,baseline,['num_7'],,,,,,,,,0,20,20,15,,,,,,,,,,num_7,0.485706100008,,,2019_May_08_0950,59.7888020319,click_exp,001,mf1733024,
13,pic/4.png,baseline,['num_4'],,,,,,,,,0,21,21,12,,,,,,,,,,num_4,0.487275799998,,,2019_May_08_0950,59.7888020319,click_exp,001,mf1733024,
1,pic/1.png,baseline,['num_1'],,,,,,,,,0,22,22,0,,,,,,,,,,num_1,0.502626100002,,,2019_May_08_0950,59.7888020319,click_exp,001,mf1733024,
14,pic/5.png,baseline,['num_5'],,,,,,,,,0,23,23,13,,,,,,,,,,num_5,0.419125299988,,,2019_May_08_0950,59.7888020319,click_exp,001,mf1733024,
11,pic/2.png,baseline,['num_2'],,,,,,,,,0,24,24,10,,,,,,,,,,num_2,0.58612360002,,,2019_May_08_0950,59.7888020319,click_exp,001,mf1733024,
4,pic/4.png,baseline,['num_4'],,,,,,,,,0,25,25,3,,,,,,,,,,num_4,0.485684199986,,,2019_May_08_0950,59.7888020319,click_exp,001,mf1733024,
17,pic/8.png,baseline,['num_8'],,,,,,,,,0,26,26,16,,,,,,,,,,num_8,0.502322399989,,,2019_May_08_0950,59.7888020319,click_exp,001,mf1733024,
1,pic/6.png,aa,['num_6'],,,,,,,,,,,,,0,0,0,0,,,,,,,,num_6,0.530126900005,2019_May_08_0950,59.7888020319,click_exp,001,mf1733024,
2,pic/6.png,aa,['num_6'],,,,,,,,,,,,,0,1,1,1,,,,,,,,num_6,0.469366699981,2019_May_08_0950,59.7888020319,click_exp,001,mf1733024,
3,pic/8.png,aa,['num_8'],,,,,,,,,,,,,0,2,2,2,,,,,,,,num_8,0.535881499993,2019_May_08_0950,59.7888020319,click_exp,001,mf1733024,
4,pic/8.png,aa,['num_8'],,,,,,,,,,,,,0,3,3,3,,,,,,,,num_8,0.487387900008,2019_May_08_0950,59.7888020319,click_exp,001,mf1733024,
5,pic/4.png,aa,['num_4'],,,,,,,,,,,,,0,4,4,4,,,,,,,,num_4,0.553976199997,2019_May_08_0950,59.7888020319,click_exp,001,mf1733024,
6,pic/4.png,aa,['num_4'],,,,,,,,,,,,,0,5,5,5,,,,,,,,num_4,0.451819000009,2019_May_08_0950,59.7888020319,click_exp,001,mf1733024,
7,pic/3.png,aa,['num_3'],,,,,,,,,,,,,0,6,6,6,,,,,,,,num_3,0.502338499995,2019_May_08_0950,59.7888020319,click_exp,001,mf1733024,
8,pic/3.png,aa,['num_3'],,,,,,,,,,,,,0,7,7,7,,,,,,,,num_3,0.537009899999,2019_May_08_0950,59.7888020319,click_exp,001,mf1733024,
9,pic/9.png,aa,['num_9'],,,,,,,,,,,,,0,8,8,8,,,,,,,,num_9,0.618914599996,2019_May_08_0950,59.7888020319,click_exp,001,mf1733024,
10,pic/9.png,aa,['num_9'],,,,,,,,,,,,,0,9,9,9,,,,,,,,num_9,0.516521699989,2019_May_08_0950,59.7888020319,click_exp,001,mf1733024,
-1,pic/3.png,huan,['num_3'],,,,,,,,,,,,,0,10,10,10,,,,,,,,num_3,0.470213099994,2019_May_08_0950,59.7888020319,click_exp,001,mf1733024,
-1,pic/9.png,huan,['num_9'],,,,,,,,,,,,,0,11,11,11,,,,,,,,num_9,0.535656099994,2019_May_08_0950,59.7888020319,click_exp,001,mf1733024,
11,pic/6.png,aaa,['num_6'],,,,,,,,,,,,,0,12,12,12,,,,,,,,num_6,0.48537759998,2019_May_08_0950,59.7888020319,click_exp,001,mf1733024,
12,pic/6.png,aaa,['num_6'],,,,,,,,,,,,,0,13,13,13,,,,,,,,num_6,0.402384099987,2019_May_08_0950,59.7888020319,click_exp,001,mf1733024,
13,pic/6.png,aaa,['num_6'],,,,,,,,,,,,,0,14,14,14,,,,,,,,num_6,0.402263700002,2019_May_08_0950,59.7888020319,click_exp,001,mf1733024,
14,pic/5.png,aaa,['num_5'],,,,,,,,,,,,,0,15,15,15,,,,,,,,num_5,0.452421900001,2019_May_08_0950,59.7888020319,click_exp,001,mf1733024,
15,pic/5.png,aaa,['num_5'],,,,,,,,,,,,,0,16,16,16,,,,,,,,num_5,0.435936100024,2019_May_08_0950,59.7888020319,click_exp,001,mf1733024,
16,pic/5.png,aaa,['num_5'],,,,,,,,,,,,,0,17,17,17,,,,,,,,num_5,0.352485100011,2019_May_08_0950,59.7888020319,click_exp,001,mf1733024,
17,pic/8.png,aaa,['num_8'],,,,,,,,,,,,,0,18,18,18,,,,,,,,num_8,0.536859799991,2019_May_08_0950,59.7888020319,click_exp,001,mf1733024,
18,pic/8.png,aaa,['num_8'],,,,,,,,,,,,,0,19,19,19,,,,,,,,num_8,0.419690200011,2019_May_08_0950,59.7888020319,click_exp,001,mf1733024,
19,pic/8.png,aaa,['num_8'],,,,,,,,,,,,,0,20,20,20,,,,,,,,num_8,0.435374799999,2019_May_08_0950,59.7888020319,click_exp,001,mf1733024,
20,pic/7.png,aaa,['num_7'],,,,,,,,,,,,,0,21,21,21,,,,,,,,num_7,0.503158599982,2019_May_08_0950,59.7888020319,click_exp,001,mf1733024,
21,pic/7.png,aaa,['num_7'],,,,,,,,,,,,,0,22,22,22,,,,,,,,num_7,0.318857900013,2019_May_08_0950,59.7888020319,click_exp,001,mf1733024,
22,pic/7.png,aaa,['num_7'],,,,,,,,,,,,,0,23,23,23,,,,,,,,num_7,0.301872799988,2019_May_08_0950,59.7888020319,click_exp,001,mf1733024,
-1,pic/6.png,huan,['num_6'],,,,,,,,,,,,,0,24,24,24,,,,,,,,num_6,0.469277800003,2019_May_08_0950,59.7888020319,click_exp,001,mf1733024,
-1,pic/3.png,huan,['num_3'],,,,,,,,,,,,,0,25,25,25,,,,,,,,num_3,0.519370800001,2019_May_08_0950,59.7888020319,click_exp,001,mf1733024,
23,pic/3.png,abb,['num_3'],,,,,,,,,,,,,0,26,26,26,,,,,,,,num_3,0.369267299975,2019_May_08_0950,59.7888020319,click_exp,001,mf1733024,
24,pic/2.png,abb,['num_2'],,,,,,,,,,,,,0,27,27,27,,,,,,,,num_2,0.435736599989,2019_May_08_0950,59.7888020319,click_exp,001,mf1733024,
25,pic/2.png,abb,['num_2'],,,,,,,,,,,,,0,28,28,28,,,,,,,,num_2,0.302274899994,2019_May_08_0950,59.7888020319,click_exp,001,mf1733024,
26,pic/6.png,abb,['num_6'],,,,,,,,,,,,,0,29,29,29,,,,,,,,num_6,0.937073799985,2019_May_08_0950,59.7888020319,click_exp,001,mf1733024,
27,pic/5.png,abb,['num_5'],,,,,,,,,,,,,0,30,30,30,,,,,,,,num_5,0.468846199976,2019_May_08_0950,59.7888020319,click_exp,001,mf1733024,
28,pic/5.png,abb,['num_5'],,,,,,,,,,,,,0,31,31,31,,,,,,,,num_5,0.485790499981,2019_May_08_0950,59.7888020319,click_exp,001,mf1733024,
29,pic/4.png,abb,['num_4'],,,,,,,,,,,,,0,32,32,32,,,,,,,,num_4,0.419410100003,2019_May_08_0950,59.7888020319,click_exp,001,mf1733024,
30,pic/8.png,abb,['num_8'],,,,,,,,,,,,,0,33,33,33,,,,,,,,num_8,0.452046199993,2019_May_08_0950,59.7888020319,click_exp,001,mf1733024,
31,pic/8.png,abb,['num_8'],,,,,,,,,,,,,0,34,34,34,,,,,,,,num_8,0.40240370002,2019_May_08_0950,59.7888020319,click_exp,001,mf1733024,
32,pic/6.png,abb,['num_6'],,,,,,,,,,,,,0,35,35,35,,,,,,,,num_6,0.486147299991,2019_May_08_0950,59.7888020319,click_exp,001,mf1733024,
33,pic/7.png,abb,['num_7'],,,,,,,,,,,,,0,36,36,36,,,,,,,,num_7,0.519573400001,2019_May_08_0950,59.7888020319,click_exp,001,mf1733024,
34,pic/7.png,abb,['num_7'],,,,,,,,,,,,,0,37,37,37,,,,,,,,num_7,0.519019500003,2019_May_08_0950,59.7888020319,click_exp,001,mf1733024,
35,pic/7.png,abb,['num_7'],,,,,,,,,,,,,0,38,38,38,,,,,,,,num_7,0.386436900008,2019_May_08_0950,59.7888020319,click_exp,001,mf1733024,
36,pic/4.png,abb,['num_4'],,,,,,,,,,,,,0,39,39,39,,,,,,,,num_4,0.603474100004,2019_May_08_0950,59.7888020319,click_exp,001,mf1733024,
37,pic/4.png,abb,['num_4'],,,,,,,,,,,,,0,40,40,40,,,,,,,,num_4,0.469791500014,2019_May_08_0950,59.7888020319,click_exp,001,mf1733024,
38,pic/1.png,abb,['num_1'],,,,,,,,,,,,,0,41,41,41,,,,,,,,num_1,0.670310199988,2019_May_08_0950,59.7888020319,click_exp,001,mf1733024,
39,pic/8.png,abb,['num_8'],,,,,,,,,,,,,0,42,42,42,,,,,,,,num_8,0.46894240001,2019_May_08_0950,59.7888020319,click_exp,001,mf1733024,
40,pic/8.png,abb,['num_8'],,,,,,,,,,,,,0,43,43,43,,,,,,,,num_8,0.402312999999,2019_May_08_0950,59.7888020319,click_exp,001,mf1733024,
41,pic/9.png,abb,['num_9'],,,,,,,,,,,,,0,44,44,44,,,,,,,,num_9,0.485758900002,2019_May_08_0950,59.7888020319,click_exp,001,mf1733024,
42,pic/3.png,abb,['num_3'],,,,,,,,,,,,,0,45,45,45,,,,,,,,num_3,0.703417599987,2019_May_08_0950,59.7888020319,click_exp,001,mf1733024,
43,pic/3.png,abb,['num_3'],,,,,,,,,,,,,0,46,46,46,,,,,,,,num_3,0.487184499972,2019_May_08_0950,59.7888020319,click_exp,001,mf1733024,
44,pic/3.png,abb,['num_3'],,,,,,,,,,,,,0,47,47,47,,,,,,,,num_3,0.50248570001,2019_May_08_0950,59.7888020319,click_exp,001,mf1733024,
45,pic/4.png,abb,['num_4'],,,,,,,,,,,,,0,48,48,48,,,,,,,,num_4,0.469249699992,2019_May_08_0950,59.7888020319,click_exp,001,mf1733024,
46,pic/4.png,abb,['num_4'],,,,,,,,,,,,,0,49,49,49,,,,,,,,num_4,0.482255300012,2019_May_08_0950,59.7888020319,click_exp,001,mf1733024,
-1,pic/3.png,huan,['num_3'],,,,,,,,,,,,,0,50,50,50,,,,,,,,num_3,0.502256200009,2019_May_08_0950,59.7888020319,click_exp,001,mf1733024,
-1,pic/5.png,huan,['num_5'],,,,,,,,,,,,,0,51,51,51,,,,,,,,num_5,0.451863099996,2019_May_08_0950,59.7888020319,click_exp,001,mf1733024,
47,pic/4.png,wh,['num_4'],,,,,,,,,,,,,0,52,52,52,,,,,,,,num_4,0.418563799991,2019_May_08_0950,59.7888020319,click_exp,001,mf1733024,
48,pic/5.png,wh,['num_5'],,,,,,,,,,,,,0,53,53,53,,,,,,,,num_5,0.419093999983,2019_May_08_0950,59.7888020319,click_exp,001,mf1733024,
49,pic/6.png,wh,['num_6'],,,,,,,,,,,,,0,54,54,54,,,,,,,,num_6,0.536356199998,2019_May_08_0950,59.7888020319,click_exp,001,mf1733024,
50,pic/7.png,wh,['num_7'],,,,,,,,,,,,,0,55,55,55,,,,,,,,num_7,0.552669600002,2019_May_08_0950,59.7888020319,click_exp,001,mf1733024,
51,pic/8.png,wh,['num_8'],,,,,,,,,,,,,0,56,56,56,,,,,,,,num_8,0.502565900009,2019_May_08_0950,59.7888020319,click_exp,001,mf1733024,
52,pic/9.png,wh,['num_9'],,,,,,,,,,,,,0,57,57,57,,,,,,,,num_9,0.519124999992,2019_May_08_0950,59.7888020319,click_exp,001,mf1733024,
53,pic/4.png,wh,['num_4'],,,,,,,,,,,,,0,58,58,58,,,,,,,,num_4,0.418524399982,2019_May_08_0950,59.7888020319,click_exp,001,mf1733024,
54,pic/5.png,wh,['num_5'],,,,,,,,,,,,,0,59,59,59,,,,,,,,num_5,0.335427300015,2019_May_08_0950,59.7888020319,click_exp,001,mf1733024,
55,pic/6.png,wh,['num_6'],,,,,,,,,,,,,0,60,60,60,,,,,,,,num_6,0.518783899985,2019_May_08_0950,59.7888020319,click_exp,001,mf1733024,
56,pic/7.png,wh,['num_7'],,,,,,,,,,,,,0,61,61,61,,,,,,,,num_7,0.534603700013,2019_May_08_0950,59.7888020319,click_exp,001,mf1733024,
57,pic/8.png,wh,['num_8'],,,,,,,,,,,,,0,62,62,62,,,,,,,,num_8,0.368617500004,2019_May_08_0950,59.7888020319,click_exp,001,mf1733024,
58,pic/9.png,wh,['num_9'],,,,,,,,,,,,,0,63,63,63,,,,,,,,num_9,0.437202300003,2019_May_08_0950,59.7888020319,click_exp,001,mf1733024,
59,pic/7.png,cross,['num_7'],,,,,,,,,,,,,0,64,64,64,,,,,,,,num_7,0.485835200001,2019_May_08_0950,59.7888020319,click_exp,001,mf1733024,
60,pic/5.png,cross,['num_5'],,,,,,,,,,,,,0,65,65,65,,,,,,,,num_5,0.535811299982,2019_May_08_0950,59.7888020319,click_exp,001,mf1733024,
61,pic/3.png,cross,['num_3'],,,,,,,,,,,,,0,66,66,66,,,,,,,,num_3,0.519115500007,2019_May_08_0950,59.7888020319,click_exp,001,mf1733024,
62,pic/7.png,cross,['num_7'],,,,,,,,,,,,,0,67,67,67,,,,,,,,num_7,0.453504499979,2019_May_08_0950,59.7888020319,click_exp,001,mf1733024,
63,pic/5.png,cross,['num_5'],,,,,,,,,,,,,0,68,68,68,,,,,,,,num_5,0.40226979999,2019_May_08_0950,59.7888020319,click_exp,001,mf1733024,
64,pic/3.png,cross,['num_3'],,,,,,,,,,,,,0,69,69,69,,,,,,,,num_3,0.369226099981,2019_May_08_0950,59.7888020319,click_exp,001,mf1733024,
65,pic/1.png,cross,['num_1'],,,,,,,,,,,,,0,70,70,70,,,,,,,,num_1,0.667772999994,2019_May_08_0950,59.7888020319,click_exp,001,mf1733024,
66,pic/5.png,cross,['num_5'],,,,,,,,,,,,,0,71,71,71,,,,,,,,num_5,0.518137799983,2019_May_08_0950,59.7888020319,click_exp,001,mf1733024,
67,pic/9.png,cross,['num_9'],,,,,,,,,,,,,0,72,72,72,,,,,,,,num_9,0.350965399994,2019_May_08_0950,59.7888020319,click_exp,001,mf1733024,
68,pic/3.png,cross,['num_3'],,,,,,,,,,,,,0,73,73,73,,,,,,,,num_3,0.619268599985,2019_May_08_0950,59.7888020319,click_exp,001,mf1733024,
69,pic/5.png,cross,['num_5'],,,,,,,,,,,,,0,74,74,74,,,,,,,,num_5,0.753361899988,2019_May_08_0950,59.7888020319,click_exp,001,mf1733024,
70,pic/7.png,cross,['num_7'],,,,,,,,,,,,,0,75,75,75,,,,,,,,num_7,0.619193499995,2019_May_08_0950,59.7888020319,click_exp,001,mf1733024,
-1,pic/1.png,huan,['num_1'],,,,,,,,,,,,,0,76,76,76,,,,,,,,num_1,0.518491700001,2019_May_08_0950,59.7888020319,click_exp,001,mf1733024,
-1,pic/4.png,huan,['num_4'],,,,,,,,,,,,,0,77,77,77,,,,,,,,num_4,0.5023277,2019_May_08_0950,59.7888020319,click_exp,001,mf1733024,
71,pic/1.png,abc3,['num_1'],,,,,,,,,,,,,0,78,78,78,,,,,,,,num_1,0.519172900007,2019_May_08_0950,59.7888020319,click_exp,001,mf1733024,
72,pic/2.png,abc3,['num_2'],,,,,,,,,,,,,0,79,79,79,,,,,,,,num_2,0.503101699986,2019_May_08_0950,59.7888020319,click_exp,001,mf1733024,
73,pic/4.png,abc3,['num_4'],,,,,,,,,,,,,0,80,80,80,,,,,,,,num_4,0.571117600019,2019_May_08_0950,59.7888020319,click_exp,001,mf1733024,
74,pic/1.png,abc3,['num_1'],,,,,,,,,,,,,0,81,81,81,,,,,,,,num_1,0.553351299983,2019_May_08_0950,59.7888020319,click_exp,001,mf1733024,
75,pic/2.png,abc3,['num_2'],,,,,,,,,,,,,0,82,82,82,,,,,,,,num_2,0.569000099989,2019_May_08_0950,59.7888020319,click_exp,001,mf1733024,
76,pic/4.png,abc3,['num_4'],,,,,,,,,,,,,0,83,83,83,,,,,,,,num_4,0.451288200013,2019_May_08_0950,59.7888020319,click_exp,001,mf1733024,
77,pic/1.png,abc3,['num_1'],,,,,,,,,,,,,0,84,84,84,,,,,,,,num_1,0.385570399987,2019_May_08_0950,59.7888020319,click_exp,001,mf1733024,
78,pic/2.png,abc3,['num_2'],,,,,,,,,,,,,0,85,85,85,,,,,,,,num_2,0.469156200008,2019_May_08_0950,59.7888020319,click_exp,001,mf1733024,
79,pic/4.png,abc3,['num_4'],,,,,,,,,,,,,0,86,86,86,,,,,,,,num_4,0.452473600017,2019_May_08_0950,59.7888020319,click_exp,001,mf1733024,
80,pic/8.png,abc3,['num_8'],,,,,,,,,,,,,0,87,87,87,,,,,,,,num_8,0.536866600014,2019_May_08_0950,59.7888020319,click_exp,001,mf1733024,
81,pic/1.png,abc3,['num_1'],,,,,,,,,,,,,0,88,88,88,,,,,,,,num_1,0.502682699997,2019_May_08_0950,59.7888020319,click_exp,001,mf1733024,
82,pic/9.png,abc3,['num_9'],,,,,,,,,,,,,0,89,89,89,,,,,,,,num_9,0.470158899989,2019_May_08_0950,59.7888020319,click_exp,001,mf1733024,
83,pic/8.png,abc3,['num_8'],,,,,,,,,,,,,0,90,90,90,,,,,,,,num_8,0.519835000014,2019_May_08_0950,59.7888020319,click_exp,001,mf1733024,
84,pic/1.png,abc3,['num_1'],,,,,,,,,,,,,0,91,91,91,,,,,,,,num_1,0.451769199979,2019_May_08_0950,59.7888020319,click_exp,001,mf1733024,
85,pic/9.png,abc3,['num_9'],,,,,,,,,,,,,0,92,92,92,,,,,,,,num_9,0.519284999988,2019_May_08_0950,59.7888020319,click_exp,001,mf1733024,
86,pic/8.png,abc3,['num_8'],,,,,,,,,,,,,0,93,93,93,,,,,,,,num_8,0.453132399998,2019_May_08_0950,59.7888020319,click_exp,001,mf1733024,
87,pic/1.png,abc3,['num_1'],,,,,,,,,,,,,0,94,94,94,,,,,,,,num_1,0.469329999993,2019_May_08_0950,59.7888020319,click_exp,001,mf1733024,
88,pic/9.png,abc3,['num_9'],,,,,,,,,,,,,0,95,95,95,,,,,,,,num_9,0.486434299994,2019_May_08_0950,59.7888020319,click_exp,001,mf1733024,
89,pic/4.png,abc3,['num_4'],,,,,,,,,,,,,0,96,96,96,,,,,,,,num_4,0.619502300018,2019_May_08_0950,59.7888020319,click_exp,001,mf1733024,
90,pic/3.png,abc3,['num_3'],,,,,,,,,,,,,0,97,97,97,,,,,,,,num_3,0.569273400004,2019_May_08_0950,59.7888020319,click_exp,001,mf1733024,
91,pic/7.png,abc3,['num_7'],,,,,,,,,,,,,0,98,98,98,,,,,,,,num_7,0.536324900022,2019_May_08_0950,59.7888020319,click_exp,001,mf1733024,
92,pic/4.png,abc3,['num_4'],,,,,,,,,,,,,0,99,99,99,,,,,,,,num_4,0.435533499985,2019_May_08_0950,59.7888020319,click_exp,001,mf1733024,
93,pic/3.png,abc3,['num_3'],,,,,,,,,,,,,0,100,100,100,,,,,,,,num_3,0.502723600017,2019_May_08_0950,59.7888020319,click_exp,001,mf1733024,
94,pic/7.png,abc3,['num_7'],,,,,,,,,,,,,0,101,101,101,,,,,,,,num_7,0.535945600015,2019_May_08_0950,59.7888020319,click_exp,001,mf1733024,
95,pic/4.png,abc3,['num_4'],,,,,,,,,,,,,0,102,102,102,,,,,,,,num_4,0.435926300008,2019_May_08_0950,59.7888020319,click_exp,001,mf1733024,
96,pic/3.png,abc3,['num_3'],,,,,,,,,,,,,0,103,103,103,,,,,,,,num_3,0.602946300001,2019_May_08_0950,59.7888020319,click_exp,001,mf1733024,
97,pic/7.png,abc3,['num_7'],,,,,,,,,,,,,0,104,104,104,,,,,,,,num_7,0.436528999999,2019_May_08_0950,59.7888020319,click_exp,001,mf1733024,
