no,pic,cla,ans,trials_prac.thisRepN,trials_prac.thisTrialN,trials_prac.thisN,trials_prac.thisIndex,trials_huan.thisRepN,trials_huan.thisTrialN,trials_huan.thisN,trials_huan.thisIndex,trials_baseline.thisRepN,trials_baseline.thisTrialN,trials_baseline.thisN,trials_baseline.thisIndex,trials_formal.thisRepN,trials_formal.thisTrialN,trials_formal.thisN,trials_formal.thisIndex,key_resp_2.keys,key_resp_2.corr,key_resp_2.rt,key_resp_huan.keys,key_resp_huan.rt,key_resp_base.keys,key_resp_base.rt,key_resp_for.keys,key_resp_for.rt,date,frameRate,expName,session,participant,
19,pic/1.png,baseline,['num_1'],,,,,,,,,0,0,0,18,,,,,num_8,0,0.486253500014,num_2,0.535784599982,num_1,0.4839507,,,2019_May_07_1400,59.8936528326,click_exp,001,MF1807059,
17,pic/8.png,baseline,['num_8'],,,,,,,,,0,1,1,16,,,,,,,,,,num_8,0.469134499988,,,2019_May_07_1400,59.8936528326,click_exp,001,MF1807059,
3,pic/3.png,baseline,['num_3'],,,,,,,,,0,2,2,2,,,,,,,,,,num_3,0.519414699986,,,2019_May_07_1400,59.8936528326,click_exp,001,MF1807059,
20,pic/2.png,baseline,['num_2'],,,,,,,,,0,3,3,19,,,,,,,,,,num_2,0.518997700012,,,2019_May_07_1400,59.8936528326,click_exp,001,MF1807059,
25,pic/7.png,baseline,['num_7'],,,,,,,,,0,4,4,24,,,,,,,,,,num_7,0.570036199992,,,2019_May_07_1400,59.8936528326,click_exp,001,MF1807059,
6,pic/6.png,baseline,['num_6'],,,,,,,,,0,5,5,5,,,,,,,,,,num_6,0.469947800011,,,2019_May_07_1400,59.8936528326,click_exp,001,MF1807059,
1,pic/1.png,baseline,['num_1'],,,,,,,,,0,6,6,0,,,,,,,,,,num_1,0.519245700008,,,2019_May_07_1400,59.8936528326,click_exp,001,MF1807059,
2,pic/2.png,baseline,['num_2'],,,,,,,,,0,7,7,1,,,,,,,,,,num_2,0.603105199989,,,2019_May_07_1400,59.8936528326,click_exp,001,MF1807059,
27,pic/9.png,baseline,['num_9'],,,,,,,,,0,8,8,26,,,,,,,,,,num_9,0.5366202,,,2019_May_07_1400,59.8936528326,click_exp,001,MF1807059,
8,pic/8.png,baseline,['num_8'],,,,,,,,,0,9,9,7,,,,,,,,,,num_8,0.535864500009,,,2019_May_07_1400,59.8936528326,click_exp,001,MF1807059,
18,pic/9.png,baseline,['num_9'],,,,,,,,,0,10,10,17,,,,,,,,,,num_9,0.588011000014,,,2019_May_07_1400,59.8936528326,click_exp,001,MF1807059,
12,pic/3.png,baseline,['num_3'],,,,,,,,,0,11,11,11,,,,,,,,,,num_3,0.602419600007,,,2019_May_07_1400,59.8936528326,click_exp,001,MF1807059,
14,pic/5.png,baseline,['num_5'],,,,,,,,,0,12,12,13,,,,,,,,,,num_5,0.468961099978,,,2019_May_07_1400,59.8936528326,click_exp,001,MF1807059,
5,pic/5.png,baseline,['num_5'],,,,,,,,,0,13,13,4,,,,,,,,,,num_5,0.485748100007,,,2019_May_07_1400,59.8936528326,click_exp,001,MF1807059,
10,pic/1.png,baseline,['num_1'],,,,,,,,,0,14,14,9,,,,,,,,,,num_1,0.552384299983,,,2019_May_07_1400,59.8936528326,click_exp,001,MF1807059,
15,pic/6.png,baseline,['num_6'],,,,,,,,,0,15,15,14,,,,,,,,,,num_6,0.435942700016,,,2019_May_07_1400,59.8936528326,click_exp,001,MF1807059,
4,pic/4.png,baseline,['num_4'],,,,,,,,,0,16,16,3,,,,,,,,,,num_4,0.536207999976,,,2019_May_07_1400,59.8936528326,click_exp,001,MF1807059,
21,pic/3.png,baseline,['num_3'],,,,,,,,,0,17,17,20,,,,,,,,,,num_3,0.586578999995,,,2019_May_07_1400,59.8936528326,click_exp,001,MF1807059,
9,pic/9.png,baseline,['num_9'],,,,,,,,,0,18,18,8,,,,,,,,,,num_9,0.569161099993,,,2019_May_07_1400,59.8936528326,click_exp,001,MF1807059,
7,pic/7.png,baseline,['num_7'],,,,,,,,,0,19,19,6,,,,,,,,,,num_7,0.5696856,,,2019_May_07_1400,59.8936528326,click_exp,001,MF1807059,
23,pic/5.png,baseline,['num_5'],,,,,,,,,0,20,20,22,,,,,,,,,,num_5,0.519228599995,,,2019_May_07_1400,59.8936528326,click_exp,001,MF1807059,
24,pic/6.png,baseline,['num_6'],,,,,,,,,0,21,21,23,,,,,,,,,,num_6,0.435946000012,,,2019_May_07_1400,59.8936528326,click_exp,001,MF1807059,
11,pic/2.png,baseline,['num_2'],,,,,,,,,0,22,22,10,,,,,,,,,,num_2,0.585876900004,,,2019_May_07_1400,59.8936528326,click_exp,001,MF1807059,
16,pic/7.png,baseline,['num_7'],,,,,,,,,0,23,23,15,,,,,,,,,,num_7,0.653217500017,,,2019_May_07_1400,59.8936528326,click_exp,001,MF1807059,
13,pic/4.png,baseline,['num_4'],,,,,,,,,0,24,24,12,,,,,,,,,,num_4,0.503069900005,,,2019_May_07_1400,59.8936528326,click_exp,001,MF1807059,
26,pic/8.png,baseline,['num_8'],,,,,,,,,0,25,25,25,,,,,,,,,,num_8,0.569236599986,,,2019_May_07_1400,59.8936528326,click_exp,001,MF1807059,
22,pic/4.png,baseline,['num_4'],,,,,,,,,0,26,26,21,,,,,,,,,,num_4,0.419084200024,,,2019_May_07_1400,59.8936528326,click_exp,001,MF1807059,
1,pic/8.png,aa,['num_8'],,,,,,,,,,,,,0,0,0,0,,,,,,,,num_8,0.445762699994,2019_May_07_1400,59.8936528326,click_exp,001,MF1807059,
2,pic/8.png,aa,['num_8'],,,,,,,,,,,,,0,1,1,1,,,,,,,,num_8,0.436449600005,2019_May_07_1400,59.8936528326,click_exp,001,MF1807059,
3,pic/5.png,aa,['num_5'],,,,,,,,,,,,,0,2,2,2,,,,,,,,num_5,0.534697499999,2019_May_07_1400,59.8936528326,click_exp,001,MF1807059,
4,pic/5.png,aa,['num_5'],,,,,,,,,,,,,0,3,3,3,,,,,,,,num_5,0.385652199999,2019_May_07_1400,59.8936528326,click_exp,001,MF1807059,
5,pic/4.png,aa,['num_4'],,,,,,,,,,,,,0,4,4,4,,,,,,,,num_4,0.419386300026,2019_May_07_1400,59.8936528326,click_exp,001,MF1807059,
6,pic/4.png,aa,['num_4'],,,,,,,,,,,,,0,5,5,5,,,,,,,,num_4,0.384775999992,2019_May_07_1400,59.8936528326,click_exp,001,MF1807059,
7,pic/3.png,aa,['num_3'],,,,,,,,,,,,,0,6,6,6,,,,,,,,num_3,0.553909999988,2019_May_07_1400,59.8936528326,click_exp,001,MF1807059,
8,pic/3.png,aa,['num_3'],,,,,,,,,,,,,0,7,7,7,,,,,,,,num_3,0.553134999995,2019_May_07_1400,59.8936528326,click_exp,001,MF1807059,
9,pic/7.png,aa,['num_7'],,,,,,,,,,,,,0,8,8,8,,,,,,,,num_7,0.553409200016,2019_May_07_1400,59.8936528326,click_exp,001,MF1807059,
10,pic/7.png,aa,['num_7'],,,,,,,,,,,,,0,9,9,9,,,,,,,,num_7,0.536529200006,2019_May_07_1400,59.8936528326,click_exp,001,MF1807059,
-1,pic/1.png,huan,['num_1'],,,,,,,,,,,,,0,10,10,10,,,,,,,,num_1,0.568994800007,2019_May_07_1400,59.8936528326,click_exp,001,MF1807059,
-1,pic/4.png,huan,['num_4'],,,,,,,,,,,,,0,11,11,11,,,,,,,,num_4,0.5197721,2019_May_07_1400,59.8936528326,click_exp,001,MF1807059,
11,pic/2.png,aaa,['num_2'],,,,,,,,,,,,,0,12,12,12,,,,,,,,num_2,0.486670200014,2019_May_07_1400,59.8936528326,click_exp,001,MF1807059,
12,pic/2.png,aaa,['num_2'],,,,,,,,,,,,,0,13,13,13,,,,,,,,num_2,0.5037954,2019_May_07_1400,59.8936528326,click_exp,001,MF1807059,
13,pic/2.png,aaa,['num_2'],,,,,,,,,,,,,0,14,14,14,,,,,,,,num_2,0.536994900001,2019_May_07_1400,59.8936528326,click_exp,001,MF1807059,
14,pic/5.png,aaa,['num_5'],,,,,,,,,,,,,0,15,15,15,,,,,,,,num_5,0.419609100005,2019_May_07_1400,59.8936528326,click_exp,001,MF1807059,
15,pic/5.png,aaa,['num_5'],,,,,,,,,,,,,0,16,16,16,,,,,,,,num_5,0.352736100001,2019_May_07_1400,59.8936528326,click_exp,001,MF1807059,
16,pic/5.png,aaa,['num_5'],,,,,,,,,,,,,0,17,17,17,,,,,,,,num_5,0.352297400008,2019_May_07_1400,59.8936528326,click_exp,001,MF1807059,
17,pic/8.png,aaa,['num_8'],,,,,,,,,,,,,0,18,18,18,,,,,,,,num_8,0.502919099992,2019_May_07_1400,59.8936528326,click_exp,001,MF1807059,
18,pic/8.png,aaa,['num_8'],,,,,,,,,,,,,0,19,19,19,,,,,,,,num_8,0.453062999994,2019_May_07_1400,59.8936528326,click_exp,001,MF1807059,
19,pic/8.png,aaa,['num_8'],,,,,,,,,,,,,0,20,20,20,,,,,,,,num_8,0.403221399989,2019_May_07_1400,59.8936528326,click_exp,001,MF1807059,
20,pic/9.png,aaa,['num_9'],,,,,,,,,,,,,0,21,21,21,,,,,,,,num_9,0.569364199997,2019_May_07_1400,59.8936528326,click_exp,001,MF1807059,
21,pic/9.png,aaa,['num_9'],,,,,,,,,,,,,0,22,22,22,,,,,,,,num_9,0.452537100005,2019_May_07_1400,59.8936528326,click_exp,001,MF1807059,
22,pic/9.png,aaa,['num_9'],,,,,,,,,,,,,0,23,23,23,,,,,,,,num_9,0.450904199999,2019_May_07_1400,59.8936528326,click_exp,001,MF1807059,
-1,pic/7.png,huan,['num_7'],,,,,,,,,,,,,0,24,24,24,,,,,,,,num_7,0.519767399994,2019_May_07_1400,59.8936528326,click_exp,001,MF1807059,
-1,pic/4.png,huan,['num_4'],,,,,,,,,,,,,0,25,25,25,,,,,,,,num_4,0.5692844,2019_May_07_1400,59.8936528326,click_exp,001,MF1807059,
23,pic/4.png,abb,['num_4'],,,,,,,,,,,,,0,26,26,26,,,,,,,,num_4,0.369561399973,2019_May_07_1400,59.8936528326,click_exp,001,MF1807059,
24,pic/6.png,abb,['num_6'],,,,,,,,,,,,,0,27,27,27,,,,,,,,num_6,0.45170960002,2019_May_07_1400,59.8936528326,click_exp,001,MF1807059,
25,pic/6.png,abb,['num_6'],,,,,,,,,,,,,0,28,28,28,,,,,,,,num_6,0.369124800025,2019_May_07_1400,59.8936528326,click_exp,001,MF1807059,
26,pic/9.png,abb,['num_9'],,,,,,,,,,,,,0,29,29,29,,,,,,,,num_9,0.536404000013,2019_May_07_1400,59.8936528326,click_exp,001,MF1807059,
27,pic/5.png,abb,['num_5'],,,,,,,,,,,,,0,30,30,30,,,,,,,,num_5,0.401871699985,2019_May_07_1400,59.8936528326,click_exp,001,MF1807059,
28,pic/5.png,abb,['num_5'],,,,,,,,,,,,,0,31,31,31,,,,,,,,num_5,0.336178199999,2019_May_07_1400,59.8936528326,click_exp,001,MF1807059,
29,pic/3.png,abb,['num_3'],,,,,,,,,,,,,0,32,32,32,,,,,,,,num_3,0.552090500016,2019_May_07_1400,59.8936528326,click_exp,001,MF1807059,
30,pic/5.png,abb,['num_5'],,,,,,,,,,,,,0,33,33,33,,,,,,,,num_5,0.353523700003,2019_May_07_1400,59.8936528326,click_exp,001,MF1807059,
31,pic/5.png,abb,['num_5'],,,,,,,,,,,,,0,34,34,34,,,,,,,,num_5,0.36989110001,2019_May_07_1400,59.8936528326,click_exp,001,MF1807059,
32,pic/2.png,abb,['num_2'],,,,,,,,,,,,,0,35,35,35,,,,,,,,num_2,0.534831700003,2019_May_07_1400,59.8936528326,click_exp,001,MF1807059,
33,pic/9.png,abb,['num_9'],,,,,,,,,,,,,0,36,36,36,,,,,,,,num_9,0.5523675,2019_May_07_1400,59.8936528326,click_exp,001,MF1807059,
34,pic/9.png,abb,['num_9'],,,,,,,,,,,,,0,37,37,37,,,,,,,,num_9,0.470039200009,2019_May_07_1400,59.8936528326,click_exp,001,MF1807059,
35,pic/8.png,abb,['num_8'],,,,,,,,,,,,,0,38,38,38,,,,,,,,num_8,0.504685799999,2019_May_07_1400,59.8936528326,click_exp,001,MF1807059,
36,pic/3.png,abb,['num_3'],,,,,,,,,,,,,0,39,39,39,,,,,,,,num_3,0.5179948,2019_May_07_1400,59.8936528326,click_exp,001,MF1807059,
37,pic/3.png,abb,['num_3'],,,,,,,,,,,,,0,40,40,40,,,,,,,,num_3,0.486135099985,2019_May_07_1400,59.8936528326,click_exp,001,MF1807059,
38,pic/2.png,abb,['num_2'],,,,,,,,,,,,,0,41,41,41,,,,,,,,num_2,0.486247599998,2019_May_07_1400,59.8936528326,click_exp,001,MF1807059,
39,pic/5.png,abb,['num_5'],,,,,,,,,,,,,0,42,42,42,,,,,,,,num_5,0.335616900004,2019_May_07_1400,59.8936528326,click_exp,001,MF1807059,
40,pic/5.png,abb,['num_5'],,,,,,,,,,,,,0,43,43,43,,,,,,,,num_5,0.402586500015,2019_May_07_1400,59.8936528326,click_exp,001,MF1807059,
41,pic/7.png,abb,['num_7'],,,,,,,,,,,,,0,44,44,44,,,,,,,,num_7,0.535741400003,2019_May_07_1400,59.8936528326,click_exp,001,MF1807059,
42,pic/4.png,abb,['num_4'],,,,,,,,,,,,,0,45,45,45,,,,,,,,num_4,0.403162200004,2019_May_07_1400,59.8936528326,click_exp,001,MF1807059,
43,pic/4.png,abb,['num_4'],,,,,,,,,,,,,0,46,46,46,,,,,,,,num_4,0.38573129999,2019_May_07_1400,59.8936528326,click_exp,001,MF1807059,
44,pic/7.png,abb,['num_7'],,,,,,,,,,,,,0,47,47,47,,,,,,,,num_7,0.519974700001,2019_May_07_1400,59.8936528326,click_exp,001,MF1807059,
45,pic/9.png,abb,['num_9'],,,,,,,,,,,,,0,48,48,48,,,,,,,,num_9,0.551872399985,2019_May_07_1400,59.8936528326,click_exp,001,MF1807059,
46,pic/9.png,abb,['num_9'],,,,,,,,,,,,,0,49,49,49,,,,,,,,num_9,0.5177157,2019_May_07_1400,59.8936528326,click_exp,001,MF1807059,
-1,pic/9.png,huan,['num_9'],,,,,,,,,,,,,0,50,50,50,,,,,,,,num_9,0.568815700011,2019_May_07_1400,59.8936528326,click_exp,001,MF1807059,
-1,pic/7.png,huan,['num_7'],,,,,,,,,,,,,0,51,51,51,,,,,,,,num_7,0.537142699992,2019_May_07_1400,59.8936528326,click_exp,001,MF1807059,
47,pic/1.png,wh,['num_1'],,,,,,,,,,,,,0,52,52,52,,,,,,,,num_1,0.552532799979,2019_May_07_1400,59.8936528326,click_exp,001,MF1807059,
48,pic/4.png,wh,['num_4'],,,,,,,,,,,,,0,53,53,53,,,,,,,,num_4,0.435412799998,2019_May_07_1400,59.8936528326,click_exp,001,MF1807059,
49,pic/7.png,wh,['num_7'],,,,,,,,,,,,,0,54,54,54,,,,,,,,num_7,0.653194699989,2019_May_07_1400,59.8936528326,click_exp,001,MF1807059,
50,pic/1.png,wh,['num_1'],,,,,,,,,,,,,0,55,55,55,,,,,,,,num_1,0.536674399977,2019_May_07_1400,59.8936528326,click_exp,001,MF1807059,
51,pic/4.png,wh,['num_4'],,,,,,,,,,,,,0,56,56,56,,,,,,,,num_4,0.451378700003,2019_May_07_1400,59.8936528326,click_exp,001,MF1807059,
52,pic/7.png,wh,['num_7'],,,,,,,,,,,,,0,57,57,57,,,,,,,,num_7,0.535943800001,2019_May_07_1400,59.8936528326,click_exp,001,MF1807059,
53,pic/4.png,wh,['num_4'],,,,,,,,,,,,,0,58,58,58,,,,,,,,num_4,0.385746600019,2019_May_07_1400,59.8936528326,click_exp,001,MF1807059,
54,pic/5.png,wh,['num_5'],,,,,,,,,,,,,0,59,59,59,,,,,,,,num_5,0.402214000002,2019_May_07_1400,59.8936528326,click_exp,001,MF1807059,
55,pic/6.png,wh,['num_6'],,,,,,,,,,,,,0,60,60,60,,,,,,,,num_6,0.386180200003,2019_May_07_1400,59.8936528326,click_exp,001,MF1807059,
56,pic/7.png,wh,['num_7'],,,,,,,,,,,,,0,61,61,61,,,,,,,,num_7,0.552396199986,2019_May_07_1400,59.8936528326,click_exp,001,MF1807059,
57,pic/8.png,wh,['num_8'],,,,,,,,,,,,,0,62,62,62,,,,,,,,num_8,0.486155799998,2019_May_07_1400,59.8936528326,click_exp,001,MF1807059,
58,pic/9.png,wh,['num_9'],,,,,,,,,,,,,0,63,63,63,,,,,,,,num_9,0.536295800004,2019_May_07_1400,59.8936528326,click_exp,001,MF1807059,
59,pic/1.png,cross,['num_1'],,,,,,,,,,,,,0,64,64,64,,,,,,,,num_1,0.500558900007,2019_May_07_1400,59.8936528326,click_exp,001,MF1807059,
60,pic/5.png,cross,['num_5'],,,,,,,,,,,,,0,65,65,65,,,,,,,,num_5,0.435752700025,2019_May_07_1400,59.8936528326,click_exp,001,MF1807059,
61,pic/9.png,cross,['num_9'],,,,,,,,,,,,,0,66,66,66,,,,,,,,num_9,0.519441500015,2019_May_07_1400,59.8936528326,click_exp,001,MF1807059,
62,pic/7.png,cross,['num_7'],,,,,,,,,,,,,0,67,67,67,,,,,,,,num_7,0.502786600002,2019_May_07_1400,59.8936528326,click_exp,001,MF1807059,
63,pic/5.png,cross,['num_5'],,,,,,,,,,,,,0,68,68,68,,,,,,,,num_5,0.453093599994,2019_May_07_1400,59.8936528326,click_exp,001,MF1807059,
64,pic/3.png,cross,['num_3'],,,,,,,,,,,,,0,69,69,69,,,,,,,,num_3,0.585538399988,2019_May_07_1400,59.8936528326,click_exp,001,MF1807059,
65,pic/7.png,cross,['num_7'],,,,,,,,,,,,,0,70,70,70,,,,,,,,num_7,0.518254100025,2019_May_07_1400,59.8936528326,click_exp,001,MF1807059,
66,pic/5.png,cross,['num_5'],,,,,,,,,,,,,0,71,71,71,,,,,,,,num_5,0.402837800008,2019_May_07_1400,59.8936528326,click_exp,001,MF1807059,
67,pic/3.png,cross,['num_3'],,,,,,,,,,,,,0,72,72,72,,,,,,,,num_3,0.552644799987,2019_May_07_1400,59.8936528326,click_exp,001,MF1807059,
68,pic/7.png,cross,['num_7'],,,,,,,,,,,,,0,73,73,73,,,,,,,,num_7,0.552479300008,2019_May_07_1400,59.8936528326,click_exp,001,MF1807059,
69,pic/5.png,cross,['num_5'],,,,,,,,,,,,,0,74,74,74,,,,,,,,num_5,0.402350599994,2019_May_07_1400,59.8936528326,click_exp,001,MF1807059,
70,pic/3.png,cross,['num_3'],,,,,,,,,,,,,0,75,75,75,,,,,,,,num_3,0.499651199993,2019_May_07_1400,59.8936528326,click_exp,001,MF1807059,
-1,pic/7.png,huan,['num_7'],,,,,,,,,,,,,0,76,76,76,,,,,,,,num_7,0.520389999991,2019_May_07_1400,59.8936528326,click_exp,001,MF1807059,
-1,pic/4.png,huan,['num_4'],,,,,,,,,,,,,0,77,77,77,,,,,,,,num_4,0.418286500004,2019_May_07_1400,59.8936528326,click_exp,001,MF1807059,
71,pic/1.png,abc3,['num_1'],,,,,,,,,,,,,0,78,78,78,,,,,,,,num_1,0.520141000015,2019_May_07_1400,59.8936528326,click_exp,001,MF1807059,
72,pic/5.png,abc3,['num_5'],,,,,,,,,,,,,0,79,79,79,,,,,,,,num_5,0.470502199983,2019_May_07_1400,59.8936528326,click_exp,001,MF1807059,
73,pic/3.png,abc3,['num_3'],,,,,,,,,,,,,0,80,80,80,,,,,,,,num_3,0.520160300017,2019_May_07_1400,59.8936528326,click_exp,001,MF1807059,
74,pic/1.png,abc3,['num_1'],,,,,,,,,,,,,0,81,81,81,,,,,,,,num_1,0.518736500002,2019_May_07_1400,59.8936528326,click_exp,001,MF1807059,
75,pic/5.png,abc3,['num_5'],,,,,,,,,,,,,0,82,82,82,,,,,,,,num_5,0.400729599991,2019_May_07_1400,59.8936528326,click_exp,001,MF1807059,
76,pic/3.png,abc3,['num_3'],,,,,,,,,,,,,0,83,83,83,,,,,,,,num_3,0.535874499998,2019_May_07_1400,59.8936528326,click_exp,001,MF1807059,
77,pic/1.png,abc3,['num_1'],,,,,,,,,,,,,0,84,84,84,,,,,,,,num_1,0.518337099988,2019_May_07_1400,59.8936528326,click_exp,001,MF1807059,
78,pic/5.png,abc3,['num_5'],,,,,,,,,,,,,0,85,85,85,,,,,,,,num_5,0.418960200011,2019_May_07_1400,59.8936528326,click_exp,001,MF1807059,
79,pic/3.png,abc3,['num_3'],,,,,,,,,,,,,0,86,86,86,,,,,,,,num_3,0.502778499998,2019_May_07_1400,59.8936528326,click_exp,001,MF1807059,
80,pic/5.png,abc3,['num_5'],,,,,,,,,,,,,0,87,87,87,,,,,,,,num_5,0.369576700003,2019_May_07_1400,59.8936528326,click_exp,001,MF1807059,
81,pic/2.png,abc3,['num_2'],,,,,,,,,,,,,0,88,88,88,,,,,,,,num_2,0.568511899997,2019_May_07_1400,59.8936528326,click_exp,001,MF1807059,
82,pic/7.png,abc3,['num_7'],,,,,,,,,,,,,0,89,89,89,,,,,,,,num_7,0.469702000002,2019_May_07_1400,59.8936528326,click_exp,001,MF1807059,
83,pic/5.png,abc3,['num_5'],,,,,,,,,,,,,0,90,90,90,,,,,,,,num_5,0.469068699982,2019_May_07_1400,59.8936528326,click_exp,001,MF1807059,
84,pic/2.png,abc3,['num_2'],,,,,,,,,,,,,0,91,91,91,,,,,,,,num_2,0.520500399987,2019_May_07_1400,59.8936528326,click_exp,001,MF1807059,
85,pic/7.png,abc3,['num_7'],,,,,,,,,,,,,0,92,92,92,,,,,,,,num_7,0.51857450002,2019_May_07_1400,59.8936528326,click_exp,001,MF1807059,
86,pic/5.png,abc3,['num_5'],,,,,,,,,,,,,0,93,93,93,,,,,,,,num_5,0.368887699995,2019_May_07_1400,59.8936528326,click_exp,001,MF1807059,
87,pic/2.png,abc3,['num_2'],,,,,,,,,,,,,0,94,94,94,,,,,,,,num_2,0.552452000004,2019_May_07_1400,59.8936528326,click_exp,001,MF1807059,
88,pic/7.png,abc3,['num_7'],,,,,,,,,,,,,0,95,95,95,,,,,,,,num_7,0.519496699999,2019_May_07_1400,59.8936528326,click_exp,001,MF1807059,
89,pic/1.png,abc3,['num_1'],,,,,,,,,,,,,0,96,96,96,,,,,,,,num_1,0.517751600011,2019_May_07_1400,59.8936528326,click_exp,001,MF1807059,
90,pic/7.png,abc3,['num_7'],,,,,,,,,,,,,0,97,97,97,,,,,,,,num_7,0.51759470001,2019_May_07_1400,59.8936528326,click_exp,001,MF1807059,
91,pic/5.png,abc3,['num_5'],,,,,,,,,,,,,0,98,98,98,,,,,,,,num_5,0.369231899997,2019_May_07_1400,59.8936528326,click_exp,001,MF1807059,
92,pic/1.png,abc3,['num_1'],,,,,,,,,,,,,0,99,99,99,,,,,,,,num_1,0.518282600009,2019_May_07_1400,59.8936528326,click_exp,001,MF1807059,
93,pic/7.png,abc3,['num_7'],,,,,,,,,,,,,0,100,100,100,,,,,,,,num_7,0.501486299996,2019_May_07_1400,59.8936528326,click_exp,001,MF1807059,
94,pic/5.png,abc3,['num_5'],,,,,,,,,,,,,0,101,101,101,,,,,,,,num_5,0.368804099999,2019_May_07_1400,59.8936528326,click_exp,001,MF1807059,
95,pic/1.png,abc3,['num_1'],,,,,,,,,,,,,0,102,102,102,,,,,,,,num_1,0.484122499998,2019_May_07_1400,59.8936528326,click_exp,001,MF1807059,
96,pic/7.png,abc3,['num_7'],,,,,,,,,,,,,0,103,103,103,,,,,,,,num_7,0.452632300003,2019_May_07_1400,59.8936528326,click_exp,001,MF1807059,
97,pic/5.png,abc3,['num_5'],,,,,,,,,,,,,0,104,104,104,,,,,,,,num_5,0.369101799995,2019_May_07_1400,59.8936528326,click_exp,001,MF1807059,
